ax,ay,az,gx,gy,gz,label
0.7271705508295043,0.0636729508979817,1.7405537662605737,0.4939885057314312,0.3537986915526461,-0.5023700971334719,5
0.731062744871325,-0.0115519167268639,1.7324667562649356,0.5115915880950057,0.3398801582319679,-0.3960517239025943,5
0.7579238267347058,-0.0032165480100599,1.7141860240899671,0.485331251722459,0.3248909290332278,-0.3244990561027743,5
0.7711598376897055,0.0807584936967718,1.6233079612650545,0.5006257345929789,0.2780495927207623,-0.2092871126063647,5
0.7705746532516276,0.0972209749388071,1.559323238660678,0.555743576448743,0.2068507397741322,-0.1345004138364016,5
0.7762192115916707,0.1886983605961516,1.4310038747501914,0.5427576977992916,0.1578681037993604,-0.1142878047197217,5
0.8225444526801666,0.2266231786959338,1.3631527664908494,0.4784054532432953,0.0673974047876981,-0.1146920561072627,5
0.8848307189053385,0.1255608871723482,1.2887972023642893,0.4452193183915849,0.0296566654958172,-0.1179260738308624,5
0.8429828562967412,0.1359788178048805,1.2599685093242836,0.4247304878436957,-0.0260176081203319,-0.0965006973050161,5
0.8455117459937211,0.203076572904495,1.249246309105708,0.5404490935782229,-0.0391331798319871,-0.0544584470284056,5
0.9422489521892242,0.2101606974538984,1.2024882425871255,0.669442194859959,0.0109201344791669,-0.0799263374296618,5
1.09660051615331,0.0859683125220198,1.0667860260684414,0.5661322765314954,0.0433075697975337,-0.143798228866203,5
1.20579561339705,0.0215795949308158,0.9187790552027622,0.469171050543063,0.0299243295981379,-0.1514790250992969,5
1.2879335042927125,0.0884690938388574,0.8354595243342422,0.3346950981585404,-0.041006837319072,-0.0932666795814165,5
1.307008603564446,0.1420216613964198,0.8268454762940168,0.3323864939374716,-0.1218415935638288,0.0033496471019337,5
1.2859882045258049,0.1576494108542002,0.8129596078132587,0.4411792680967359,-0.1598500013434503,0.0668172871509339,5
1.291242108404461,0.1797382233046291,0.7342091799924881,0.5618036518910164,-0.1392398040688754,0.0866256316335294,5
1.3714346995332165,0.1295194618301956,0.657392664996529,0.6073985497970172,-0.0894541626308818,0.0926894156931876,5
1.4014098555316548,0.0109534081067106,0.606241174778393,0.5886411700509226,-0.0701822946387503,0.0939021764790823,5
1.41717635069164,0.0182457888476868,0.5770611230419957,0.4781168788976653,-0.0616170214373873,0.1076467567718346,5
1.4103630179834463,-0.0057173293268974,0.5728433786906383,0.337003697651595,-0.0717882836380946,0.1387741930917515,5
1.3803894564930137,-0.0046743413510696,0.6125685113027579,0.2325394961246537,-0.0784799037377925,0.1262423669616222,5
1.3957652971916117,0.0140789579982667,0.6283897326029848,0.1895418098814509,-0.0589403716433402,0.0878383924194241,5
1.4389764641450495,0.0415841384475528,0.6357725852111821,0.121726673177894,-0.0321738956299684,0.0854128774709064,5
1.475763358343676,0.1284781808723315,0.6479016602099816,0.0946006184964712,-0.0252146114279498,0.0833916139099297,5
1.4831602809819415,0.1455637236711215,0.6609091319497605,0.0651659690500081,-0.0343152128339542,0.0494344377470409,5
1.4518218206386622,0.1070141369966209,0.708896953905714,0.0562201406954058,-0.0752679301245237,-0.0180757294239124,5
1.433720965758388,0.0855518001388741,0.7452841789021126,0.0155310539452576,-0.1191649437697816,-0.1045857449256511,5
1.394598117331467,0.0303314760307655,0.806103793249649,-0.0522840874863134,-0.1151499734641308,-0.2282869741836933,5
1.3691003398129271,-0.0188442974678401,0.8075092280352159,-0.0854702223380238,-0.0907924875279053,-0.2840738047530561,5
1.3543064945363958,-0.0298887036930547,0.7927449628134786,-0.1547282402257592,-0.0383301875250249,-0.3337968512627605,5
1.3605346428065113,-0.0053008169437518,0.8048725978176209,-0.1824314530544704,-0.0228056301216433,-0.3297543241408073,5
1.3661807956545602,-0.0198855784257042,0.8189355856412319,-0.1166363367703239,-0.050642762544298,-0.3095417150241273,5
1.3685151553748491,-0.0796909527843424,0.859716234337184,-0.0742157992183811,-0.0736619367397596,-0.2957971281081034,5
1.3395142437678702,-0.1090721459757477,0.8980373721583944,-0.0092864059711247,-0.1116703313631215,-0.2582016563409872,5
1.2914382328891574,-0.1494960383744037,0.9171965010743424,0.0276512001017903,-0.1183619514628194,-0.2169679088394586,5
1.2713888892259644,-0.1636659944911743,0.9161424249851672,0.0031223239870664,-0.0977517629590842,-0.1923085145900128,5
1.254260684229144,-0.1622082011501645,0.8939938671605754,-0.0358353119612874,-0.0808888894295188,-0.1854362211320008,5
1.250563020164014,-0.1322005323660771,0.87799840650681,-0.1261593043601579,-0.0557283936446516,-0.1809894492457781,5
1.2254543025988556,-0.1499125507575492,0.880635036724405,-0.1824314530544704,-0.0576020467463166,-0.1919042632024718,5
1.2145542458721508,-0.1592909074501811,0.8871380525969657,-0.192243009173977,-0.0691116338440474,-0.2100956153814467,5
1.2083245030940295,-0.1615817255574823,0.9182520171581746,-0.1896458306072782,-0.0696469620486889,-0.213329639728318,5
1.2071573232338852,-0.1663750319995847,0.9309081302015616,-0.1731970456262239,-0.0650966635383966,-0.2007978135981887,5
1.2166956701237548,-0.1578314070912078,0.9421573684647248,-0.1322193798024314,-0.072323611842736,-0.1915000118149308,5
1.2219495740024109,-0.1569983823249164,0.9521768512905168,-0.1099991079087761,-0.0915954798348676,-0.1919042632024718,5
1.205015898982281,-0.1513720511165228,0.9556933182437484,-0.1111534100193105,-0.1012314050600936,-0.1910957538041181,5
1.1649204006719065,-0.1278254453250841,0.9375868254223182,-0.1316422311111713,-0.114079312669428,-0.1995850594355657,5
1.133972594790014,-0.0744811339590945,0.9409276130273538,-0.1264478787057879,-0.1068523643650886,-0.2343507648666233,5
1.1300788062401876,-0.0682300341759823,0.9553419595473566,-0.0747929479096412,-0.070449958741071,-0.2820525478153511,5
1.136306954510303,-0.1005285210673709,0.997176684332484,-0.0245808841136305,-0.0169170023289076,-0.2885205832625504,5
1.1242397179234536,-0.1386615953587258,1.0093057593312833,-0.014192184030878,0.0069051597880962,-0.2735632421839035,5
1.1141177811035117,-0.1611652131743366,1.0056150530245134,-0.0023606027639469,0.03072732629052,-0.2440528180374222,5
1.12326706804,-0.1772111820332262,0.9915520652009022,0.0071623742819154,0.0352776291862322,-0.2363720218043282,5
1.1431202872184965,-0.1878373688573314,0.9845205712890966,0.0065852208626411,0.0331363119822464,-0.2319252499181056,5
1.146623421306936,-0.1865878317078945,0.9820596204196976,0.0005251454203676,0.0251063669855249,-0.2165636574519177,5
1.1462343613535544,-0.1836705380079112,0.97784187606834,-0.0133264562659737,0.0256416951901664,-0.2016063163732707,5
1.1448726515167191,-0.1715848508248326,0.967822393242548,-0.0242923097680005,0.0320656511875436,-0.1915000118149308,5
1.1559672382201147,-0.1461622322912749,0.9497159004211178,-0.0268894836066851,0.0350099650839114,-0.1866489819178954,5
1.1656985205786694,-0.1294914948576667,0.9282714999839669,-0.0271780579523151,0.0336716401868879,-0.1822022034084011,5
1.1656985205786694,-0.129074982474521,0.922469761509532,-0.0202522594731515,0.0221620530891571,-0.1809894492457781,5
1.164531340718525,-0.1288667262829483,0.918954734550958,-0.0150579070677682,0.0160057655795205,-0.1785639342972605,5
1.1579125379870223,-0.1378268635744707,0.9186033758545662,-0.0110178567729192,0.0039608502771482,-0.1761384193487428,5
1.1555765837587275,-0.1461622322912749,0.9168451423779506,-0.021983710274946,-0.0102253822292097,-0.1789681856848015,5
1.1518789196935977,-0.1497042945659765,0.9222940821613362,-0.0436268382053553,-0.0303002425283034,-0.1716916408392485,5
1.1370866689250718,-0.1463704884828476,0.9323135649871284,-0.0514183644494232,-0.0436834827276992,-0.1652235987687775,5
1.148570315581849,-0.1149067333757142,0.952001171942321,-0.0398753622561364,-0.068576305639406,-0.1429897194678493,5
1.131247580608338,-0.1019863144083805,0.9669425565069114,-0.0473783141545742,-0.0728589400473775,-0.1276281270016613,5
1.1185951595834107,-0.1005285210673709,0.9773133980290952,-0.0392982135648763,-0.0573343826439959,-0.1260111214514973,5
1.1164537353318065,-0.0986525083252517,0.993310298677518,-0.0254466071505207,-0.0375271908326428,-0.138138689570814,5
1.12326706804,-0.1011532896420893,1.0013958686784985,-0.0234265820030962,-0.0305679066306242,-0.143798228866203,5
1.1197623394435552,-0.089900627225302,1.0089544006348916,-0.0231380076574661,-0.0198613162252754,-0.1421812166927673,5
1.1199584639282514,-0.0734398530012304,0.9999889938982746,-0.0185208086713571,-0.0091547258199267,-0.137330186795732,5
1.1184006296067197,-0.0765654028927865,0.9915520652009022,-0.0078435295149603,0.0018195286877426,-0.1535002820370019,5
1.1265756721517484,-0.0936509456915765,0.9848719299854884,-0.0032263305288512,0.0133291157854734,-0.1692661258907309,5
1.1314421105850287,-0.1059465960841916,0.9762593219399202,-0.0110178567729192,0.016541093784162,-0.1720958922267895,5
1.1370866689250718,-0.0915683837758483,0.9788959521575152,-0.030640959555904,0.0111877985814876,-0.1737129044002252,5
1.1382538487852163,-0.0848990645916268,0.98311513650353,-0.0404525109473965,-0.0016601134132666,-0.1749256585628482,5
1.1376702588551442,-0.0788562210000875,0.9924304619418812,-0.0453582890071498,-0.0142403569202804,-0.1838192155818368,5
1.1370866689250718,-0.0796909527843424,0.991903423897294,-0.0456468633527798,-0.019325988020634,-0.1862447305303544,5
1.133972594790014,-0.0744811339590945,0.993485978025714,-0.0387210648736162,-0.0222703019170018,-0.1846277183569188,5
1.133778064813323,-0.0721886088338298,0.9954198908505254,-0.0251580328048906,-0.0171846664312283,-0.1834149641942958,5
1.1328038204218638,-0.0780231962337961,1.000868830633911,-0.0159236348326725,-0.0131696961255775,-0.1906915024165771,5
1.133581940328627,-0.0971947149842419,1.0064934497654925,-0.0159236348326725,-0.0112960430239125,-0.1955425323136124,5
1.129884276263497,-0.1157397581420056,1.01229374824527,-0.0257351862241649,-0.0059427478212382,-0.2028190771591654,5
1.1415624528969648,-0.1082374141914927,1.0205564375891036,-0.0364124606525475,0.0026225253801247,-0.1991808014247531,5
1.1483757856051584,-0.1034458147673541,1.021259154981887,-0.0338152868138629,0.0130614516831527,-0.1951382809260714,5
1.1530476940617478,-0.1094886583588933,1.0135249436772982,-0.0245808841136305,0.0189500750904685,-0.2032233285467064,5
1.1579125379870223,-0.1096969145504661,1.0052636943281217,-0.0202522594731515,0.0189500750904685,-0.2048403407201421,5
1.1655039906019788,-0.1146967701661777,1.0054393736763176,-0.0144807583765081,0.0141321124778555,-0.1983722986496711,5
1.1658930505553602,-0.1221991141166903,1.0064934497654925,-0.0124607332290836,0.0117231267861291,-0.1915000118149308,5
1.163946156280447,-0.1272006767503657,1.0005174719375194,-0.0185208086713571,0.0194854032951099,-0.1846277183569188,5
1.162389916466921,-0.1080291579999198,0.9811812236787184,-0.0231380076574661,0.0248386984977843,-0.1809894492457781,5
1.171148548942022,-0.0809404899337795,0.9585056278095392,-0.0245808841136305,0.0309949903928407,-0.1789681856848015,5
1.1717321388720945,-0.068646546559128,0.9525282099869088,-0.0196751060538772,0.0296566654958172,-0.1826064547959421,5
1.1676454148535826,-0.0553096152086487,0.952001171942321,-0.018232234325727,0.0224297171914778,-0.1870532333054365,5
1.1590813123551724,-0.0509345281676558,0.9463765528107396,-0.0196751060538772,0.0181470783980864,-0.1910957538041181,5
1.1487648455585395,-0.0615624220097246,0.9419816891165288,-0.0214065568556717,0.0077081564804783,-0.2036275799342474,5
1.147207011237008,-0.066770533817009,0.9328420430263732,-0.0179436552520828,-0.0003217885162431,-0.213329639728318,5
1.152267979646979,-0.0596864092676055,0.9296769347695336,-0.0115950054641793,-0.0078164009229032,-0.214542393890941,5
1.1600539622386263,-0.0536435656760662,0.9363570699849472,-0.006689227404426,-0.0142403569202804,-0.2153509032892947,5
1.1571344180802592,-0.0507262719760829,0.9439156019413404,0.0002365710747376,-0.0137050287156389,-0.2189891724004353,5
1.1495429654653029,-0.0696878275169921,0.9367084286813392,0.0077395229731754,-0.0059427478212382,-0.2299039863571289,5
1.151295329763525,-0.1221991141166903,0.9419816891165288,-0.0017834540726868,-0.0019277775155874,-0.2440528180374222,5
1.1487648455585395,-0.1465787446744204,0.949540221072922,-0.0251580328048906,-0.0102253822292097,-0.2537548844547646,5
1.1450671814934097,-0.1759599378658256,0.969754866072702,-0.0364124606525475,-0.0161140100219454,-0.2537548844547646,5
1.1505172098567622,-0.1695005818911406,0.9829394571553342,-0.0462240120440399,-0.0214673052246197,-0.2400102975387406,5
1.151295329763525,-0.1615817255574823,0.9864544841139082,-0.030640959555904,-0.0179876631236104,-0.221414687348953,5
1.1532422240384383,-0.1572066385164894,0.9887397556351114,-0.0124607332290836,-0.0086193976152853,-0.214946645278482,5
1.1561617681968055,-0.1753351692911072,0.9861031254175164,-0.0043806326393856,-0.0029984339248703,-0.213329639728318,5
1.16219538649023,-0.1792937439489545,0.9829394571553342,-0.0026491818375911,0.0007488722784597,-0.2072658556686597,5
1.1707594889886404,-0.1753351692911072,0.98153258237511,-0.0127493075747136,-0.0083517291275447,-0.1987765500372121,5
1.1697868391051869,-0.170333606657432,0.9869815221584956,-0.0170779322151927,-0.0137050287156389,-0.1943297781509894,5
1.1577180080103315,-0.1501208069491222,0.9832908158517256,-0.0231380076574661,-0.0161140100219454,-0.1834149641942958,5
1.151295329763525,-0.140744157274454,0.9825866584642852,-0.022560858966206,-0.0126343679209361,-0.1769469221238248,5
1.1448726515167191,-0.1399111325081627,0.9861031254175164,-0.0193865317082472,-0.0115637071262332,-0.1785639342972605,5
1.142925757241806,-0.1449126951418378,0.988037038242328,-0.0176550809064527,-0.0104930507169503,-0.1822022034084011,5
1.1372811989017626,-0.1403276448913084,0.9854004080247332,-0.0242923097680005,-0.0102253822292097,-0.1805851912349655,5
1.1324147604684824,-0.1169892952914424,0.9794229902021028,-0.026312334915425,-0.0096900540245682,-0.1805851912349655,5
1.1326092904451732,-0.1126142082504495,0.976610680636312,-0.0231380076574661,-0.0072810727182617,-0.1870532333054365,5
1.1388374387152886,-0.1199065889914256,0.970106224769094,-0.022272284620576,-0.0056750837189174,-0.1910957538041181,5
1.1431202872184965,-0.118448795650416,0.9651857630249532,-0.0271780579523151,-0.0051397555142759,-0.1927127659775538,5
1.1446765270320227,-0.1176140638661609,0.9651857630249532,-0.0294866621733838,-0.0126343679209361,-0.1890744968664131,5
1.1479867256517768,-0.1159480143335783,0.967469594551499,-0.0280437857172194,-0.0174523349189689,-0.1890744968664131,5
1.1440929371019504,-0.1182405394588431,0.970283344111947,-0.0329495590489586,-0.0244116191209876,-0.1915000118149308,5
1.1310530506316472,-0.1259494325829649,0.97784187606834,-0.0309295339015341,-0.0244116191209876,-0.1919042632024718,5
1.1345561847200862,-0.1251164078166737,0.975028126507892,-0.0260237605697949,-0.0214673052246197,-0.1915000118149308,5
1.1380593188085255,-0.1257411763913921,0.9741497297669128,-0.0228494333118361,-0.0147756851249218,-0.1931170173650948,5
1.136892138948381,-0.1215743455419719,0.978017555416536,-0.022560858966206,-0.0126343679209361,-0.1931170173650948,5
1.1324147604684824,-0.1317840199829314,0.9904979891117272,-0.0237151610767404,-0.0163816741242661,-0.1927127659775538,5
1.134750714696777,-0.1388698515502986,0.9952442115023294,-0.0291980830997396,-0.0220026334292612,-0.1943297781509894,5
1.1343616547433957,-0.1482465012249667,0.9912007065045106,-0.0341038611594929,-0.0220026334292612,-0.1947340295385304,5
1.1437038771485688,-0.1409524134660268,0.98153258237511,-0.0407410852930265,-0.0177199990212897,-0.1975637958745891,5
1.146623421306936,-0.1430366823997188,0.9759079632435284,-0.0436268382053553,-0.0147756851249218,-0.1995850594355657,5
1.146623421306936,-0.1476217326502483,0.9711617408529262,-0.0430496895140952,-0.0150433492272426,-0.1967552930995071,5
1.1448726515167191,-0.1457457199081292,0.9718644582457096,-0.034681009850753,-0.0161140100219454,-0.1862447305303544,5
1.1495429654653029,-0.1313675075997857,0.9723914962902972,-0.022272284620576,-0.0171846664312283,-0.1773511735113658,5
1.1540203439452017,-0.1322005323660771,0.9722158169421012,-0.0199636851275215,-0.0179876631236104,-0.1757341679612018,5
1.1567453581268776,-0.1344930574913418,0.9725671756384928,-0.0190979573626171,-0.021199641122299,-0.1733086530126842,5
1.1686180647370366,-0.1336600327250505,0.9681737519389396,-0.0205408338187816,-0.0241439550186669,-0.1729044016251432,5
1.1838009699669494,-0.1557471381575158,0.969754866072702,-0.0289095087541096,-0.0361888659356192,-0.1753299165736608,5
1.1908072381438275,-0.1644990192574655,0.9745010884633044,-0.0390096392192462,-0.0549254013376894,-0.1729044016251432,5
1.2067682632805037,-0.1688758133164222,0.9752052458507452,-0.0473783141545742,-0.0683086415370852,-0.1708831380641665,5
1.2139706559420786,-0.1797102563321002,0.9854004080247332,-0.0771015426746816,-0.1057817035703858,-0.1636065932186135,5
1.2196152142821215,-0.189296869216305,1.022666029762111,-0.1068247806508173,-0.147002089348696,-0.1450109830288259,5
1.2161104856856768,-0.1915876873236059,1.0711808897626522,-0.1218306891757072,-0.1692182668517755,-0.1324791568986967,0
1.2061846733504311,-0.189088613024732,1.0973715125904056,-0.1532853637695948,-0.2136506087016748,-0.1078197626492508,0
1.1845790898737123,-0.1809615004995008,1.1497541982405697,-0.1680026932208405,-0.2380081034087401,-0.1005432178036978,0
1.12209829367185,-0.2080501685656413,1.2742071764960905,-0.2089803637726472,-0.2746781775204984,-0.0863943795001328,0
1.065458180294727,-0.2455584742822777,1.3650852393210036,-0.2479379808089443,-0.212579947906972,-0.0334373218901004,0
0.969888153959368,-0.3982973206213066,1.6885224393068017,-0.2459179556615199,-0.1081906892621122,0.0255835396494053,0
0.8250749368851521,-0.5637483297360962,2.0838528125551026,-0.0860473710292839,0.4311538144672334,0.2289224843279025,0
0.721135338028074,-0.578751310619158,2.09281821929172,0.1234581334357168,1.378954861005511,0.4933035474836104,0
0.6105801254555043,-0.4095499830380938,1.690280672783417,0.1378868885413325,1.8337172014221128,0.6428769384002649,0
0.6833757939459939,-0.2553516363400916,1.540515468441122,0.0086052507380798,2.4033080030680543,0.9484917225644146,0
1.0847278095431512,0.0755503818894876,1.381257819317622,-0.2291806010628496,2.507161942279112,1.013980612927848,0
1.2696381194357476,0.2537118467620742,0.8122554504258181,-0.3515364545709813,2.439978081565232,0.9250450824775917,0
1.2112456417604025,0.4074936810769308,0.4928631954324967,-0.3728910128837748,2.272687587843624,0.6723874155329195,0
1.1958682065537989,0.7429790425390759,-0.0154952384599666,-0.204651734404154,2.200150295979054,0.5591966892345849,0
1.151489859740216,0.7177646801970907,-0.4762157690982109,0.1407726414536613,2.020011894648112,0.4621761045404219,0
1.149348435488612,0.6758812874394613,-0.7339100130030167,0.1107608196758672,1.7951734742086891,0.4625803625512345,0
1.1884712839155331,0.6792150935225902,-1.20236475494585,0.0184168021295722,1.643139873788142,0.4407507280145756,0
1.194310372232267,0.7369361989475366,-1.648496699710553,-0.1651169403085117,1.187842205166899,0.3364536580843049,0
1.1773766972121371,0.7986158790303302,-1.7789256557940472,-0.2078260616621129,0.6145042288802234,0.0486259283486872,0
1.1608320821453892,0.8596690835204417,-1.9562883577443195,-0.177814244612333,0.313381341935497,-0.1623938324327189,0
1.2361598293488698,0.898426926386515,-2.004980337087713,-0.0600756184583955,-0.3022476677679317,-0.6317308988032616,0
1.3256946428827985,0.9242660573032186,-1.9392373810067216,0.109606522293347,-0.9601676494922357,-1.1423017060520608,0
1.382529286236612,0.8294548655627452,-1.7641599505776526,0.2706314090361174,-1.333292429930173,-1.3994061448829558,0
1.06623630020149,0.7392287240728013,-1.53951214406421,0.8451843495897906,-2.1670681084107297,-1.8566156365109097,0
0.7867302083649942,0.5887806958410735,-1.2999243929808342,1.662428915276133,-2.9981671414826594,-2.101188454533097,0
0.1557004761082762,0.1497322615385054,-0.5925831773527512,2.121551876449065,-3.2810888212299574,-2.0785503172213566,0
0.0379428708741317,-0.5777100296612938,-0.2102602758442286,2.336540312393093,-3.442490687158829,-1.8392327804837447,0
0.1134635535462975,-1.1820012168870786,0.1683719193575239,1.2869928736649914,-3.3774481436489348,-1.312896129381217,0
0.2841652026004405,-1.872768227136533,1.176473299107568,0.6766565724127669,-3.195168425114007,-0.8803460849888819,0
0.2699565417619871,-1.781082585287615,1.4097337136665786,0.0120681523416687,-2.456413880103421,-0.0213097537707838,0
0.0204240114159242,-0.829220349416607,1.6551246432190465,-0.2055174621690583,-1.7321128282428846,0.2491351331842125,0
-0.046727098734522,0.0259563889897724,2.2972499408107248,-0.2476494064633143,-1.4288486240941725,0.1468592407123864,0
-0.0704725119548394,0.273924646470384,2.5581092929723703,-0.1466481349080471,-0.7465711476628036,-0.1983722986496711,0
-0.1823926233802556,0.4431259740514481,2.626838797972692,-0.0202522594731515,-0.0182553272259312,-0.5359230484019064,0
-0.1035617420883357,0.3018463393028158,2.3324059703750954,-0.0240037354223704,0.3144520027301998,-0.6822624480880479,0
0.008940364759147,0.1911991419129892,2.1587354147262503,-0.0903760003977771,0.941858197852382,-0.9405796940677392,0
0.215845318081844,0.1503570301132238,1.6064326638756523,-0.1004761261348995,1.238966180272756,-1.0590257082739218,0
0.401144687927822,-0.0155104913847113,1.0156345358503056,-0.1287564781988425,1.737893207207776,-1.283385698611464,0
0.495934999848412,-0.189296869216305,0.7860648275980647,-0.2196576240169872,2.125204154370773,-1.4572142390132952,0
0.6134996696138714,-0.4789385562450094,0.4561246117397063,-0.2568838091635467,2.296242090243727,-1.532000937783258,0
0.4928209257133542,-0.7133616261835689,0.3418667956581733,-0.3567308069763646,2.648756616396631,-1.6880423773936553,0
0.3057691915691539,-0.8085910373251516,0.3510078817429863,-0.4106943088974807,3.105124809864561,-1.7955735180336991,0
-0.0295988937377016,-0.9515367216063668,-0.095651101066304,-0.5327615691479257,3.287404528399489,-1.825892451578534,0
0.0986713027777718,-1.1092771305790703,-0.5989105138771161,-0.9370552297146248,3.327018916407615,-1.9172536029496547,0
0.312777054254038,-1.1424086422367503,-0.815648429737774,-0.8181622919941245,2.867438477430384,-1.927764165518808,0
0.9249262172157132,-1.4089219428751254,-1.1728347845077185,-0.6343400366745948,2.4244535241618506,-1.8036585656543336,0
1.2957194868843598,-1.910901301427888,-1.0634988701649837,-0.4756237068727513,1.4148218112477104,-1.1932375133476605,0
1.280927236115834,-2.080102629008952,-0.9459017064730724,-0.3711595620819803,0.5189478680702684,-0.4178813650625249,0
1.012515730982734,-1.70856675517118,-0.7077193901752633,-0.2808355413150247,0.1771399498643925,-0.0706285356464039,0
0.8106717460700078,-1.1845002911859526,-0.5605908160505632,-0.1322193798024314,-0.2281045053103536,0.3344323945233282,0
0.7902333424534334,-1.016550207772289,-0.4790280786640017,-0.0240037354223704,-0.3887033613905842,0.35545346667546,0
0.8786009761272172,-0.7802511250916104,-0.2956893988857559,0.0288055022123247,-0.4079752249972958,0.3041134609784933,0
1.0483299752979065,-0.6950248392173782,-0.1884630767160285,0.057085863732296,-0.392718331696235,0.2070928564145152,0
1.120347523881633,-0.6602272780271159,-0.1241269954152607,-0.0118835798098093,-0.3608662245825096,0.1638378453520101,0
1.194895556670345,-0.650848921334484,0.0126292971925982,-0.0447811403158897,-0.3442710414677842,0.1545400369454805,0
1.2077409131639574,-0.6370971846188227,0.063255189360804,-0.1120191330562006,-0.3167015643766105,0.1355401753681519,0
1.204043249098827,-0.5660408548613609,0.1223165702317247,-0.1890686819160181,-0.285920118057588,0.0833916139099297,0
1.192754132418741,-0.4874821811533864,0.1521993393609053,-0.1931087322108671,-0.2612949373211026,0.0413493835031343,0
1.1947010266936542,-0.4495573630536042,0.1731181417481263,-0.1250050022496235,-0.1906314345062133,-0.0625434880257689,0
1.220198804212194,-0.4278867700042846,0.2079228126161051,-0.0667128473199432,-0.1480727501433988,-0.1195430860042981,0
1.258932592685733,-0.5037364062038487,0.1857742547915133,0.0152424795996275,-0.0645613309483353,-0.1975637958745891,5
1.2624357267741726,-0.5354084175025551,0.1557158063141368,0.0065852208626411,-0.0147756851249218,-0.206861597657847,5
1.2606833624759504,-0.5399934677530845,0.0936649965345722,-0.0075549551693303,-0.0091547258199267,-0.2024148257716244,5
1.2643826210490858,-0.5222814493616122,0.0467312506677937,-0.0248694584592606,-0.0276235927342563,-0.1943297781509894,5
1.2671076352307622,-0.507903237053269,0.0289775565374126,-0.0424725360948209,-0.070449958741071,-0.1826064547959421,5
1.2669131052540714,-0.453725900920988,0.0228258993612436,-0.0493983393019987,-0.0977517629590842,-0.1769469221238248,5
1.2639935610957045,-0.4328883326379597,0.0324925834959867,-0.0592098906934912,-0.1491434109381016,-0.1712873894517075,5
1.260877892452641,-0.4039236518297002,0.0463798919714021,-0.0675785703568334,-0.1673446137501105,-0.1708831380641665,5
1.2392739034839275,-0.36808310266361,0.0465555713195979,-0.0964360758400506,-0.1858134675081804,-0.1809894492457781,5
1.2244800582073962,-0.3443282406805986,0.0433919030574155,-0.1365480091709246,-0.1852781393035389,-0.212925388340777,5
1.2017072948705327,-0.2874418670399072,0.016848481538613,-0.1564596862995395,-0.1785865367455205,-0.2355635190292462,5
1.2059901433737406,-0.2120087432234887,-0.0316663784619278,-0.1815657300175803,-0.1611883262404739,-0.2966056308831853,5
1.208129973117339,-0.1630412259164557,-0.0513539854171205,-0.150111036511636,-0.1577086841394646,-0.385136903322629,5
1.2124128216205468,-0.1169892952914424,-0.0743809399826915,-0.1157706090054195,-0.1617236544451154,-0.4340514603037948,5
1.185746269733857,-0.1361608140418881,-0.0784244449805104,-0.0606527671496556,-0.1796571931548035,-0.5165189288137652,5
1.1746516830304612,-0.1440779633575829,-0.0705145543277257,-0.06238421795145,-0.2182009072119671,-0.5860503462991519,5
1.1505172098567622,-0.1467870008659933,-0.0281513515033537,-0.0745043735640112,-0.2535326608121217,-0.6256671081203315,5
1.0572831377496985,-0.2276381996992326,0.060618559143209,-0.0848930736467637,-0.3528363146691471,-0.7336024537850147,5
0.9988906600743528,-0.2934847106314465,0.1056183921851759,-0.1068247806508173,-0.4596345283077942,-0.8544739299535413,5
0.8486274146367846,-0.446640069353621,0.2175894967508483,-0.1258707300145279,-0.5016579020076467,-0.9017714615147284,5
0.6946649106260803,-0.6891902518174117,0.3455589419596007,-0.1720427435156895,-0.5324393527120891,-0.9474519875257512,5
0.6415279313373967,-0.7894195185747058,0.3895032589177352,-0.293821419964476,-0.4936279570109252,-0.903792725075705,5
0.5634767644602455,-0.8300533741828985,0.4424129826124868,-0.3561536535570904,-0.4663261484074921,-0.8605377140131999,5
0.5048881623002037,-0.7548285065580527,0.487061456958062,-0.3731795872294048,-0.4363476943954318,-0.797070087210743,5
0.4828935188701031,-0.7452436006918116,0.5081559386934787,-0.2770840653658057,-0.4473219489031012,-0.790197793752731,5
0.4161314686730383,-0.8686029608573992,0.5819830247807939,-0.2453408069702597,-0.462578842204162,-0.7845382610806138,5
0.3456717544108436,-0.9609133712810348,0.6846388039081147,-0.2672725139743133,-0.4615081814094592,-0.7271344183378153,5
0.3433358001825489,-0.9252810783065174,0.6921973358645078,-0.3284504312723508,-0.3825470694955277,-0.6390074370255429,5
0.3330193333859162,-0.7575375440664631,0.6616118493425438,-0.3322019261336265,-0.3429327165707607,-0.6119225013344924,5
0.2861105023673481,-0.6277205349441546,0.6718070115165318,-0.230334903173384,-0.3225901921693462,-0.6386031856380018,5
0.2327789931019736,-0.7062775016341656,0.7162798065139112,-0.1186563619177484,-0.3509626571820622,-0.7085388545109296,5
0.0941939242978731,-1.0409298383300192,0.8254400415084502,-0.1408766338114036,-0.3509626571820622,-0.7150068965814005,5
0.0597429843275416,-1.0669772254382954,0.8409084641176279,-0.2894927953239969,-0.3017123395632903,-0.6588158080012251,5
0.0513734118058221,-0.9992547017639622,0.8310646606400316,-0.3772196375242538,-0.2433613986114145,-0.578369550066058,5
0.0807633833661827,-0.7990044244409469,0.8057524345532574,-0.3526907566815156,-0.2283721694126743,-0.5605824426513524,5
0.1290355187295918,-0.6466820904850638,0.7422947499934688,-0.1902229840265525,-0.2460380440200417,-0.5775610472909759,5
0.1154104478212107,-0.6348046594935579,0.722959941729325,0.0247654519174757,-0.3300848045760063,-0.6220288390091909,5
0.0241232699890598,-0.7608730571675557,0.7296386369500816,0.1058550463441281,-0.3777291024974949,-0.6357734193019432,5
-0.0798163288680183,-0.9750833273978052,0.7563577378170798,0.1404840623800171,-0.4427716460073891,-0.6284968744563901,5
-0.1029781521582634,-1.0307201638890595,0.7537211075994849,0.0282283535210646,-0.4574932111038084,-0.5682632388844463,5
-0.1082336505449251,-0.9542457591147768,0.7206746702081217,-0.0444925659702596,-0.4524075800034548,-0.5225827194966951,5
-0.118355587364867,-0.7652481442085487,0.6860456786883388,-0.1203878127195428,-0.4457159599037569,-0.4421365079244298,5
-0.1380142765666729,-0.721696994900373,0.6788385054283375,-0.1224078378669673,-0.4443776350067333,-0.4049452875448546,5
-0.2205428219237228,-0.8154669056829822,0.6856943199919471,-0.1359708557516503,-0.437953683394776,-0.392413448168182,5
-0.2902244162791546,-0.8062985121998868,0.7081942365129306,-0.1680026932208405,-0.4194848120950266,-0.3588604968997474,5
-0.3149440738909314,-0.7850444315337128,0.7247167352112834,-0.1887801075703881,-0.3892386895952257,-0.3451159166069951,5
-0.3416090312696157,-0.7402437450761002,0.7421190706452728,-0.1734856199718539,-0.348286011773435,-0.3321798390893248,5
-0.3914374064465509,-0.786085712491577,0.7516115154264775,-0.1599225879031283,-0.323660852964049,-0.3244990561027743,5
-0.4126539299698884,-0.8200502489155481,0.7567090965134715,-0.1573254140644438,-0.2631685904227676,-0.3014566674034923,5
-0.4202453825848448,-0.8110901116240254,0.7577646125973039,-0.1729084665525797,-0.1922374235055576,-0.2642654404006455,5
-0.4089562659047585,-0.7483691505833677,0.7581159712936956,-0.1746399173543741,-0.1577086841394646,-0.2444570760482349,5
-0.4027265231266373,-0.7114873204594134,0.7545995043404641,-0.1498224621660059,-0.0958781098574192,-0.205648843495224,5
-0.3978616792013628,-0.6612685589849799,0.7361430928172996,-0.1016304282454339,-0.0455571358293643,-0.1745214071753072,5
-0.377617805561479,-0.6214677281430787,0.7231356210775209,-0.0745043735640112,-0.0265529363249734,-0.1636065932186135,5
-0.3476442440710461,-0.5791678230023036,0.703623693470524,-0.0211179825100416,-5.412441392238168e-05,-0.1466279952022616,5
-0.3349918230461187,-0.5727084670276187,0.6958894821659352,0.0178396534383121,0.0119907908884498,-0.1353089232347553,5
-0.3073526212759749,-0.5699994295192082,0.679189864124729,0.0296712252492148,0.0146674406824969,-0.131670647500343,5
-0.2952853846891256,-0.5674986482023707,0.6688190226025452,0.0348655776545982,0.0189500750904685,-0.13045789333772,5
-0.2781555851842995,-0.5645813545023874,0.6528235619487798,0.0285169278666947,0.021359056396775,-0.131670647500343,5
-0.2746524510958602,-0.5527039235108816,0.6385848947769728,0.006296646517011,0.0253740310878456,-0.1369259287849193,5
-0.2713438469841117,-0.5433272738362135,0.6326074769543424,-0.0185208086713571,0.0275153482918314,-0.1482450007524256,5
-0.2553828218474359,-0.5241574621037315,0.6262801404299775,-0.0277552113715894,0.0264446874971286,-0.1547130428228966,5
-0.2456515394888811,-0.5154055810037818,0.6236435102123825,-0.0341038611594929,0.0189500750904685,-0.1692661258907309,5
-0.2466241893723348,-0.5183228747037649,0.6243462276051658,-0.0251580328048906,0.007172823890417,-0.1817979520208601,5
-0.2450679495588088,-0.529992049503698,0.6239948689087742,-0.0173665065608227,0.0023548612778039,-0.1846277183569188,5
-0.2402015111255286,-0.5441602986025048,0.6254017436889983,0.001679447530902,-0.0059427478212382,-0.1817979520208601,5
-0.2452624795354996,-0.557497229952984,0.6283897326029848,0.0158196282908876,-0.0137050287156389,-0.1761384193487428,5
-0.2520742177356874,-0.5656243424782152,0.6259287817335857,0.0198596738577224,-0.0147756851249218,-0.1753299165736608,5
-0.2511015678522336,-0.5674986482023707,0.6183702497771927,0.0227454267700512,-0.0104930507169503,-0.1769469221238248,5
-0.2577187760757305,-0.578751310619158,0.606241174778393,0.0224568524244212,-0.0072810727182617,-0.1777554248989068,5
-0.2581078360291121,-0.5785430544275852,0.605187098689218,0.0247654519174757,-0.0064780760258796,-0.1765426707362838,5
-0.2522687477123781,-0.5710407104770724,0.6032531858644065,0.0406370787512416,-0.0158463459196247,-0.1729044016251432,5
-0.2425374653538234,-0.580000847768595,0.5897172360853828,0.0510257882900225,-0.0209319770199783,-0.1712873894517075,5
-0.2384491468273062,-0.5991723665190407,0.5753043295600374,0.0686288611975687,-0.0268206004272941,-0.1708831380641665,5
-0.2405905710789102,-0.6133423226358112,0.5717878626068059,0.0715146093818833,-0.0270882645296148,-0.1733086530126842,5
-0.2501273234607741,-0.654600946818722,0.5709094658658267,0.0631459439025836,-0.0249469473256291,-0.1749256585628482,5
-0.2474023092790979,-0.6833556644174451,0.5809289486916188,0.0293826509035848,-0.0225379660193226,-0.1773511735113658,5
-0.2376710269205432,-0.7035684641257551,0.596046012604405,-0.0188093830169871,-0.0311032348352656,-0.1769469221238248,5
-0.2030239624655152,-0.7769173190084816,0.6178432117326051,-0.0534383895968477,-0.0412745014213927,-0.1708831380641665,0
-0.2071122809920324,-0.825468323932369,0.6521194045613391,-0.1446281097606226,-0.0832978707358254,-0.130053641950179,0
-0.2246295459422343,-0.8369292425407291,0.6892093469505213,-0.2413007519473965,-0.154496706140776,-0.0876071402860275,0
-0.2855525078225652,-0.8552660295069198,0.798545261293256,-0.2877613445222025,-0.2029440139109063,-0.0762880683185212,0
-0.4227758667898303,-0.8817299289983418,0.9425087271611164,-0.374622458957555,-0.3049243175619788,-0.0859901281125918,0
-0.4692956378550169,-0.920696028055988,1.1066882780234144,-0.4017485183669919,-0.3035859926649553,-0.0322245677274774,0
-0.6656879998963849,-0.7237812638340649,1.5334839745293165,-0.286029893720408,-0.1464667611440545,0.0502429405221229,0
-0.9745856578012468,-0.2345140680570633,1.4666869423591495,0.4082817075906556,0.5545472813873239,0.1699016294116684,0
-1.0061170536132116,0.0607556571979985,1.5740889438770724,1.529684375869291,1.42954337195871,0.2414543369511186,0
-1.3346734007198793,-0.1559553943490887,1.5918426380074535,2.129920551384393,1.991371761147655,0.2204331853197265,0
-1.4425051936187785,-1.4753949294000213,0.9201859299829862,2.0742255608373688,3.044632569250379,0.1808164499916337,0
-1.2344330604359366,-1.4249679117340148,0.6440338345603586,0.7109970046469974,3.3039997465975737,0.4027510048599184,0
-0.5802415048889737,-0.4599770007041002,0.0291532358856085,0.2533169057461871,3.173914659577785,0.5094736427248804,0
-0.3735310815429674,-0.370167371597302,-0.2266070951943857,0.2155135671803534,2.7105871819078367,0.8053864664440347,0
-0.2793243595524496,-0.1474134764586755,-0.4948478599695712,0.1866560616971362,2.3066810165467557,0.7827483291322938,0
-0.197379404125472,0.0576301073064425,-0.7734609062615978,0.1930047114850397,2.1541119519735505,0.5967921676249727,0
-0.0434184946227735,-0.0200955416352408,-1.09513987277078,0.2850601830537899,1.7376255431054553,0.2337735407180245,0
0.3583225809277653,-0.2866071352556523,-1.654472677538526,0.1736701830476849,1.0087743944639411,-0.0172672266488304,0
0.6263450261074838,-0.6495993841850469,-1.8998636070909936,0.1003721195931147,0.5400933847786451,-0.1130750439338271,0
0.6913563065143318,-0.7815006622410475,-1.8532812199206072,0.0143767518347232,-0.4933602929086045,-0.2509251181187059,0
0.7256127165079727,-0.8213014930829488,-1.4551385371065146,0.001679447530902,-1.4371462331932148,-0.2695207216852218,0
0.6177809236090737,-0.9121541101655748,-1.1566622045110997,-0.0029377561832212,-1.8785254693584368,-0.2606271646662332,0
0.4143806988828216,-0.9006931915572148,-1.0315065088627953,-0.0646928174445046,-2.7861768961631843,-0.2723504880212805,0
-0.5128942702538309,-0.7825436502168754,-0.575005162570566,-0.0208294081644116,-3.590509317273725,-0.2820525478153511,0
-1.5709699201109426,-0.6489746156103285,-0.1851237291056503,0.2007962377291077,-3.8298016343218255,-0.2772015179183158,0
-1.6338381817581809,-0.5804190671697043,-0.22484886171777,0.6310617076028652,-3.751375850612536,-0.4486045499949009,0
-1.093901097356923,-0.9234050655643984,0.1924529500122699,-0.2606352851127655,-3.359246940836926,-0.5876673584725876,0
-0.8402834375003543,-1.6623082753725575,0.8043455597730333,-0.4929382101626817,-3.100682755796694,-0.3083289608615043,0
-1.0092327222562747,-0.9350742403643312,1.2638363349739066,-0.5119841642544065,-2.4598935222044305,0.3950702086268244,0
-1.094484687286995,-0.3472455343805817,1.5027228086591562,-0.0874902474854483,-1.796084715343496,0.4637931167138576,0
-0.8603311866555418,-0.0105089287510361,1.8820562812590351,0.0882519639805535,-1.4513324656995727,0.2608584499159881,0
-0.4782488003068086,-0.2613944799316308,1.7774665893069026,0.2700542603448573,-0.7123100548573519,-0.0390968611854894,0
-0.3692482330397595,-0.2964020043314296,1.631217851917839,0.3621096940894939,0.0400955917988452,-0.1163090616574267,0
-0.257329716122349,-0.1899216377910234,1.1801654454089952,0.3990473048904232,0.390736434152145,-0.1607768268825549,0
-0.1790840192685071,-0.1249081516251008,0.7433502660773011,0.4913913318927466,0.9547061054617164,-0.3075204514631507,0
-0.1709089767234783,-0.0976112273673875,0.5698539497819943,0.6740593938460681,1.3896614557962796,-0.5444123474100825,0
-0.2265764402171474,-0.1192818204167072,0.2559106345720586,0.7759263269740411,1.584521286275625,-0.6834752088739428,0
-0.3386894871112488,-0.2926516858651551,-0.078951483025098,0.9046308160860338,1.921243586537407,-0.9737283939486328,0
-0.4334813935398445,-0.3691243836214741,-0.1810802241078313,0.9236767701777584,2.172848487375621,-1.297130285527488,0
-0.6631591101994051,-0.6971091081510702,-0.2570169023681539,0.7909322307709169,2.26358698643762,-1.4774268613765182,0
-1.0092327222562747,-1.2809792394769723,-0.1466269119362441,0.2192650431295724,2.3998283609670445,-1.794360763871076,0
-1.0767728923601023,-1.2240928658362809,-0.2325845130170162,-0.0395867879105063,2.4710271963719954,-1.8735942345272616,0
-0.8025222989102686,-1.025926857446957,-0.5324662803979981,-0.1879143798054838,2.357537327550292,-1.8372115169227683,0
-0.4868129028052189,-1.1490779614209716,-0.6251025766995268,-0.1636740638523473,1.808556714408085,-1.5429157583632234,0
-0.4652073193284999,-1.3016085515684277,-0.5191060099671704,0.08190331419265,1.1865038802698755,-0.9801964360191038,0
-0.5615554655706216,-1.4266339612665977,-0.3109821421467379,0.0544886898936114,0.9158947141459725,-0.688326238770978,0
-0.6654934699196943,-1.1780409352112675,-0.2144780201955861,-0.1547282402257592,0.4375777704646105,-0.2901375954359861,0
-0.6981936400998089,-1.062600431379339,-0.1708850619338433,-0.1688684162577307,0.0746243530920375,-0.1482450007524256,0
-0.6775623010145493,-0.9438261214642808,-0.0488930345477214,-0.0889331239416127,-0.0511780951343594,-0.1247983672888744,0
-0.5880258929726152,-0.8736045234910741,0.1079036637063792,0.0516029369812826,-0.2104386307029863,-0.0969049486925571,0
-0.5341107937771685,-0.8573502984406116,0.1692503160985031,0.0608373396815149,-0.2618302699111639,-0.041926627521548,0
-0.4513877184434278,-0.9050682785982076,0.2423746847930349,0.0282283535210646,-0.2677188933184797,0.002136886316039,0
-0.4617041852400606,-0.8733945602815378,0.2530983250062678,-0.1108648356736804,-0.2856524495698473,0.0947106792541643,0
-0.4683213934635576,-0.7925450684662619,0.2763009589200346,-0.2245633973487263,-0.2728045244188334,0.1177530679534463,0
-0.4219961523750616,-0.6298030968598828,0.3126881839164334,-0.2407236032561365,-0.244699723508438,0.0866256316335294,5
-0.3379113672044857,-0.6027144287937423,0.3416911163099775,-0.2107118145744417,-0.1681476104424926,-0.0051396519062421,5
-0.2952853846891256,-0.607091222852699,0.3659492663075767,-0.1379908808990748,-0.0923984677564099,-0.0686072720854272,5
-0.2347514827621762,-0.6554339715850135,0.3705198093499832,-0.1085562314526117,-0.0650966635383966,-0.0835646131640742,5
-0.2505179779221613,-0.7002346580426261,0.3466130180487757,-0.0776786960939558,-0.0450218076247228,-0.0896284038470042,5
-0.2838017380323483,-0.7333661697003059,0.3380004100032076,-0.0739272248727511,-0.0527840797482838,-0.0896284038470042,5
-0.3231191164359601,-0.7542037379833343,0.3135665806574125,-0.0926845998908316,-0.056263726234713,-0.0888199010719222,5
-0.3287636747760032,-0.7200309453677904,0.2995035928338014,-0.1299107803093769,-0.0565313903370337,-0.0859901281125918,5
-0.3194198578628244,-0.7104460395015494,0.3068864454419986,-0.1099991079087761,-0.0466277966240671,-0.0819476009906385,5
-0.2777665252309179,-0.6944000706426597,0.3191911997889941,-0.0926845998908316,-0.0444864794200813,-0.0766923197060622,5
-0.2538265820339098,-0.6721047090186217,0.3188398410926024,-0.0756586756745455,-0.0557283936446516,-0.0633519908008509,5
-0.2438991751906587,-0.663352827918672,0.3135665806574125,-0.0730614971078468,-0.0819595458388018,-0.051628680692347,5
-0.2493492035540111,-0.6637693403018174,0.3146206567465876,-0.0649813917901346,-0.1012314050600936,-0.0492031657438293,5
-0.2919751860693713,-0.6827308958427267,0.3146206567465876,-0.0603641928040255,-0.1368308227625689,-0.0605222244647922,5
-0.3104666954110327,-0.6896067642005573,0.3023159023995921,-0.1137505838579951,-0.1435224384768469,-0.0896284038470042,5
-0.3118299997558736,-0.6923158017089678,0.2856177243530434,-0.1480910113642115,-0.1247859074601966,-0.1094367748226864,5
-0.26608834859745,-0.6885654832426932,0.3128638632646292,-0.1365480091709246,-0.1151499734641308,-0.1102452775977684,5
-0.2398124511721471,-0.6854399333511371,0.3300890793557655,-0.1036504533928584,-0.1095290141591358,-0.0977134514676391,5
-0.2108099450571624,-0.6587677776681423,0.3427466323938099,-0.0814301720431748,-0.1202356045644845,-0.0920539187955218,5
-0.2067232210386508,-0.643140028210362,0.3365935352229835,-0.0681557237761076,-0.1290685418681681,-0.0977134514676391,5
-0.2160654434438241,-0.6627263523259898,0.3452075832632089,-0.0398753622561364,-0.1467344252463752,-0.1171175710557804,5
-0.2530468676191411,-0.7433692949676564,0.3761444284815647,-0.0531498152512177,-0.1437901069645875,-0.13045789333772,5
-0.2725110268442562,-0.7444105759255205,0.3787810586991596,-0.0814301720431748,-0.1336188447638803,-0.1361174260098373,5
-0.2721219668908747,-0.7206557139425088,0.3800108141365305,-0.1270250321250622,-0.1031050581617586,-0.1535002820370019,5
-0.2579133060524213,-0.6860647019258556,0.3875693460929235,-0.0996104030980094,-0.0664349840500003,-0.1712873894517075,5
-0.2413686909856732,-0.7094030515257215,0.3872179873965319,-0.0747929479096412,-0.0522487515436423,-0.1761384193487428,5
-0.2411741610089824,-0.7281563508750579,0.3800108141365305,-0.049975492721273,-0.0415421655237135,-0.1745214071753072,5
-0.2584968959824936,-0.7523294322591788,0.3687615758733674,-0.0453582890071498,-0.0460924684194256,-0.1696703772782719,5
-0.2649211687373055,-0.7785850755590279,0.3557541041335886,-0.0485326162651086,-0.0493044376472744,-0.1660321081671312,5
-0.2637523943691553,-0.7819188816421567,0.3471400560933632,-0.0742157992183811,-0.0573343826439959,-0.1579470605464962,5
-0.265310228690687,-0.7915037875083979,0.3290350032665904,-0.0909531490890372,-0.0613493529496467,-0.1530960306494609,5
-0.2721219668908747,-0.8267195680997695,0.3195425584853857,-0.1209649614108029,-0.068576305639406,-0.1433939708553903,5
-0.2717329069374932,-0.8438068179165233,0.3170816076159867,-0.1558825376082794,-0.0814242176341603,-0.1256068700639564,5
-0.2551882918707451,-0.8679781922826805,0.3056566900046278,-0.1760827938105385,-0.0897218267332025,-0.1114580383836631,5
-0.2376710269205432,-0.9029840096645158,0.2928248976130448,-0.2138861371043863,-0.1055140394680651,-0.0795220860421208,5
-0.2296905143522052,-0.9196547470981238,0.2875501971831976,-0.2571723835091767,-0.123447582563173,-0.0370755976245127,5
-0.227743620077292,-0.922572040798107,0.283508132180036,-0.2788155161676002,-0.1376338150695311,-0.0128204481393361,5
-0.2343624228087947,-0.9154879162487034,0.303898456528012,-0.2990157723698594,-0.1764452195415347,0.0320515817198763,5
-0.2316374086271184,-0.9348659841727582,0.2980981580482347,-0.3114244976000364,-0.2093679699082834,0.0700513114978052,5
-0.2320264685805,-0.950911953031648,0.2933519356576323,-0.3281618569267208,-0.2232865383123207,0.0922851643056467,5
-0.230663164235659,-0.9261141030728088,0.3046011739207954,-0.3668309327134871,-0.2401494206127259,0.1480720014982811,5
-0.222682651667321,-0.8992336911982413,0.3151491347858324,-0.389916941828075,-0.2626332622181261,0.2070928564145152,5
-0.2010786626986077,-0.840054792432285,0.3295620413111779,-0.3942455664685541,-0.2768194947244841,0.2289224843279025,5
-0.1806402590820331,-0.7937963126336626,0.3406370402208025,-0.397997042417773,-0.3027829959725732,0.2523691509078122,5
-0.1757754151567585,-0.7667059375495585,0.3448547845721599,-0.3902055161737051,-0.3220548639647047,0.2620712107018828,5
-0.1646808284533629,-0.721696994900373,0.3592691310921628,-0.3806825391278427,-0.3300848045760063,0.2636882162520468,5
-0.1613706298336087,-0.7100278201004399,0.3757930697851731,-0.358173683432529,-0.3434680447754021,0.2572201808048475,5
-0.1660425382901982,-0.710862551884695,0.3854611939145735,-0.3564422326307346,-0.3512303256698029,0.2531776536828941,5
-0.1777207149236661,-0.717113651667807,0.4155196423919501,-0.3653880562573227,-0.3531039787714679,0.2588371929782831,5
-0.1983536485169314,-0.702527183167891,0.4362613254363177,-0.3959770172703485,-0.3480183476711143,0.2774328031680707,5
-0.2002989482838389,-0.6837738838185545,0.4420616239160951,-0.423103038855672,-0.3383824136750485,0.2863263535637877,5
-0.1833652732637094,-0.6552257153934408,0.4571786878288812,-0.4337803180120687,-0.3354380997786806,0.2891561198998463,5
-0.1831707432870186,-0.637930209385114,0.4872371363062578,-0.4461890479702599,-0.3437357088777229,0.299262431081458,5
-0.1765535350635216,-0.6198016786104962,0.5134291991286686,-0.434934620122603,-0.3820117412908863,0.3235175805666346,5
-0.1514448174983633,-0.5581219985277024,0.5637022926058253,-0.4216601623995076,-0.4114548670983051,0.3417088863827077,5
-0.1463838490883923,-0.5174881429195101,0.5904213934728235,-0.3876083423350205,-0.4738207651995721,0.3780916039872009,5
-0.1424900605385659,-0.5108205307532522,0.5983312841256083,-0.3552879305202002,-0.5220004264090612,0.3930489450658478,5
-0.1411283507017306,-0.5183228747037649,0.6188972878217802,-0.3506707315340912,-0.5369896512223814,0.3926446936783068,5
-0.1520284074284355,-0.542702505261495,0.6505382904275766,-0.365965209676597,-0.5444842680144614,0.3869851543829178,5
-0.155337011540184,-0.540826492519376,0.661436169994348,-0.398285616763403,-0.5348483340183956,0.3837511366593182,5
-0.1701292623087097,-0.5022769058448754,0.6732138862967558,-0.4135800618098096,-0.5305656996104241,0.3801128675481775,5
-0.1701292623087097,-0.4751882377787348,0.6762018752107425,-0.4308945650997399,-0.5324393527120891,0.3542407125128369,5
-0.1701292623087097,-0.4608100254703915,0.6765532339071342,-0.4317602928646442,-0.5442166039121407,0.3194750534446812,5
-0.1987427084703129,-0.4110077763791036,0.688330950209542,-0.4210830137082474,-0.548766902422433,0.307347478702093,5
-0.2458460694655718,-0.4235116829632916,0.7428232280327136,-0.3913598182842395,-0.5519788804211215,0.298049676918835,5
-0.2641414543225368,-0.4364303949126615,0.7786819749898675,-0.374622458957555,-0.5581351723161779,0.3150282749351869,5
-0.2822439037108166,-0.424344707729583,0.8377447958554455,-0.3694281112801859,-0.5664328121131592,0.3283686038403982,5
-0.2867212821907153,-0.384962096288791,0.8574309628159807,-0.3656766353309669,-0.5873106647192153,0.3506024367784247,5
-0.2915861261159898,-0.3537048903552667,0.8535645771610151,-0.3454763791287077,-0.5934669566142717,0.340091874209272,5
-0.3030697727727671,-0.2799395230893944,0.8493453928150002,-0.3200817516090086,-0.5940022848189132,0.3210920656181169,5
-0.3215612821144283,-0.2653530545894783,0.8711425919432003,-0.2560180813986423,-0.6025675580202761,0.2847093480136237,5
-0.328180084845931,-0.2772304855809839,0.8788768032477893,-0.2066717642795927,-0.6103298389146768,0.2636882162520468,5
-0.3493950138612629,-0.3047373730482339,0.8794038412923767,-0.1942630343214015,-0.6073855250183089,0.2547946658563298,5
-0.3914374064465509,-0.3334920906469569,0.890830198898393,-0.196283059468826,-0.5934669566142717,0.2366033070540833,5
-0.4093453258581399,-0.3357846157722216,0.8976860134620027,-0.2329320770120685,-0.5752657494168429,0.2236672030433262,5
-0.4381517074884283,-0.320573378697587,0.9055959041147874,-0.2617895872232999,-0.5624178067241494,0.2196246825446446,5
-0.4570322767834712,-0.2772304855809839,0.91403283281216,-0.3267189804705563,-0.5302980355081034,0.2099226227505739,5
-0.4636494850069682,-0.243265949157013,0.9150869089013348,-0.3786625139804182,-0.4941632852155667,0.1917312639483273,5
-0.4615096552633698,-0.1484547574165396,0.917724979113587,-0.3910712392105952,-0.4791740604022464,0.18000794059328,5
-0.4618987152167513,-0.0886510900758651,0.9363570699849472,-0.389628367482445,-0.4636495029988648,0.1533272827828575,5
-0.4659854392352628,-0.084690808400054,0.9488375036801384,-0.3772196375242538,-0.4553518938998226,0.1314976482461985,5
-0.4683213934635576,-0.0965682393915597,0.9959469288951128,-0.3777967862155139,-0.4467866206984597,0.1278593791350579,5
-0.474549541733673,-0.114280257783032,1.0783880630226534,-0.3988627701826773,-0.3895063536975464,0.1492847556609041,5
-0.4801941000737162,-0.0974029711758148,1.097020153894014,-0.3904940905193351,-0.2604919450141403,0.1779866770323034,5
-0.4786378602601902,0.0072030896404361,1.075400074108667,-0.3584622577781591,-0.1850104752012182,0.1707101388100221,5
-0.4406821916934137,0.0838857506062916,1.0446374682438495,-0.2488037085738486,-0.0554607295423309,0.0850086260833654,5
-0.4171313084497871,0.0647142318558459,1.032861191936099,-0.1330851075673357,0.0269800200871899,-0.0609264758523332,5
-0.3854037881531261,-0.0382240724098587,1.025478339327902,-0.0903760003977771,0.0491961932048496,-0.1272238756141203,5
-0.3805373497198459,-0.1945049810235891,1.0460443430240738,-0.0629613666427101,0.0628470975065661,-0.213733891115859,5
-0.3819006540646869,-0.2670208111400244,1.0609857275886645,-0.1192335106090085,0.0462518793084817,-0.2404145489262815,0
-0.3873506824280394,-0.3614154904973523,1.0966687951976222,-0.1729084665525797,0.0277830123941521,-0.2371805312026819,0
-0.4245266365800471,-0.4310123198958407,1.146766209326583,-0.3042101247752427,-0.0423451578306757,-0.2230316995223887,0
-0.453529142695032,-0.482274069346102,1.2053019921475736,-0.4874552834116682,-0.164935632443804,-0.2080743584437417,0
-0.5675890838640464,-0.6320956219851476,1.383894449535217,-0.6028853148005654,-0.2270338445156508,-0.1813937006333191,0
-0.678534950898003,-0.7660811689748399,1.624537716702425,-0.8530798776476294,-0.2286398335149951,-0.0762880683185212,0
-0.719021103669765,-0.6423070034440708,1.804185690173901,-0.9191635730054202,0.1873112120650998,-0.0205012443724301,0
-0.8031058888403408,-0.2636870050568956,2.5436949464523675,-0.4943810866188461,1.2084523936706342,-0.0285862919930651,0
-1.0551673088833835,-0.5104040183701066,2.5222491060205594,-0.2355292508507531,1.856736375617574,0.1343274212055289,0
-1.233460410552483,-0.6735625023596313,2.257700487546801,-0.4764894299096415,2.92552173673826,0.8664285782979738,0
-1.1522935750322685,-0.1372020949997523,1.6612763003952151,-0.7480386219897117,3.234406900191967,1.1574902264081155,0
-0.1952395743818737,0.6521264254564497,1.2205947354085556,-1.0845170985727122,3.2501991260830896,1.170426303925786,0
0.1860646920600962,0.8702969773625104,1.0518446415038512,-1.004870371146196,2.936495995631349,0.6772384454299549,0
0.4085416105660876,0.9617743630198547,0.5897172360853828,-0.7489043450266019,2.791689611025754,0.3049219637535753,0
0.543816480750434,0.9086383078454384,-0.0858072975887077,-0.0367010349981775,2.472365521269019,-0.546433610971059,0
0.6966118049009935,0.7415195421801024,-0.5094378858377698,0.5465091737485106,2.0237592008514413,-1.2599390585246413,0
1.1394226231533666,0.4166620745600262,-1.1807446751605029,0.7574575215735764,1.7290602699040922,-1.4523632157395314,0
1.4518218206386622,0.0140789579982667,-1.4939852729776553,0.9917804906829736,0.9528324523600514,-1.5602986077671164,0
1.5374644401307698,-0.2959854919482841,-1.4837901108036673,0.8356613725439282,-0.0220026334292612,-1.3840445524167675,0
1.5551778295656682,-0.5141543368363811,-1.0657841416861868,0.6622278173071512,-0.5048698800063353,-1.216684153434483,0
1.2713888892259644,-0.4733122250366158,-0.7776800906076128,0.3548953165366861,-1.3793307739356762,-0.8726652887557881,0
1.0043406884377053,-0.353288377972121,-0.6686955349612697,0.1459669891310305,-2.183395662506493,-0.571093005220505,0
0.3318521535257717,0.0232473514813621,-0.2833846445387605,0.1655900777299728,-2.5372486451190173,-0.472859666363719,0
-0.2063341610852694,0.315183270653295,0.271906095225824,0.6449133140172207,-2.973006650083212,-0.3814986342114884,0
-0.2419522809157454,0.1922404228708533,0.452432465438279,1.1574225905958957,-3.0554474040981527,-0.4057537903199367,0
-0.5132833302072125,-0.4426814946957735,0.5712608245622184,1.166368418950498,-3.1344085160120843,-0.3952432145042406,0
-0.9741965978478656,-0.5358266369036644,0.8669234075971854,0.7337943637677283,-3.332212796335814,-0.32005227759328,0
-1.0833901005835995,-0.6006301598600505,1.0736418406320511,0.1710730044809862,-3.2211319088204164,-0.2537548844547646,0
-1.1696179045137851,-0.77337525673378,1.6315692106142303,-0.0522840874863134,-3.026004278290734,-0.1862447305303544,0
-1.2428026329576565,-0.1992982874656916,2.279847605376736,-0.2747754658727512,-2.312410224679596,-0.1029687327522154,0
-1.2768645129746063,0.1528578114300615,2.4361172655862484,-0.0433382638597253,-1.204813331909729,-0.2541591358423056,0
-1.285039555519635,0.1268104243217852,2.5301604366680013,0.1283639114954701,-0.6009615690209318,-0.3596690062981011,0
-1.1799327768024122,-0.1032375585757813,2.296020185373354,0.3508552993379363,0.5673952284654372,-0.4676043850791426,0
-1.102659729832024,-0.1811697566910737,2.0675045532102883,0.3245949676934037,1.5261703628654286,-0.5112636475291888,0
-0.894976656602564,-0.2686868606726072,1.459479769099148,0.265148482285104,2.180343104167701,-0.643049964147496,0
-0.7219406478281318,-0.2826485605978048,0.9490131830283344,0.2963146109014467,2.4217768743678034,-0.7534108247606969,0
-0.6357144384059521,-0.603130941176888,0.7240140178185002,0.3075690387491034,2.795704581331405,-0.9996005489839732,0
-0.6215057775674987,-0.6910662645595309,0.6765532339071342,0.2005076633834776,3.054268498861025,-1.2069820936404123,0
-0.5740117621108526,-0.4899829624702239,0.6878039121649545,0.1860789082778619,3.1059278021715238,-1.3310874881834636,0
-0.5074442418904785,-0.3032778726892603,0.6447365519531418,0.1347125612833736,3.0665810782657177,-1.6787445689871257,0
-0.3451137598660607,-0.6725212214017672,0.2891327513116176,-0.1336622562585958,2.846025296619687,-1.998104085779276,0
-0.0169464727127743,-0.9742503026315138,-0.0228780910681639,-0.1847400572755391,2.626272770405811,-2.021550725866099,0
0.167963837179822,-0.8677699360911078,-0.2092047597603963,-0.0730614971078468,1.9838771487409943,-1.9002749983100315,0
0.6131090151524842,-1.0830214872792212,-0.4443990871442186,0.1664558054948771,1.2689446342848163,-1.4741928436529186,0
0.7470237700080009,-1.5124850157155485,-0.3473679271484793,0.2342709469264481,0.9370402308543492,-1.1580675499057898,0
0.6310169345640733,-1.5979195577813534,-0.1789706319348239,0.2270565693736403,0.3816358327461406,-0.5144976718760602,0
0.5623079900920952,-1.4587241919664131,-0.0859829769369035,0.1107608196758672,0.0039608502771482,-0.042330878909089,0
0.5319437741402753,-1.0375960322468902,0.0590360050147892,0.0198596738577224,-0.1194326078721024,0.0999659605387407,0
0.5510188734120088,-0.8129661243661447,0.223391235225283,-0.0973017988769407,-0.2717338636241305,0.2277097301652796,5
0.5407024066153763,-0.7577458002580358,0.2891327513116176,-0.1241392792127334,-0.3397207385720721,0.2111353769131969,5
0.5872221776805628,-0.6941918144510868,0.371749564787354,-0.1325079541480614,-0.34266505246844,0.179199437818198,5
0.6839593838760661,-0.6270940593514723,0.4406561891305284,-0.1374137322078147,-0.335973432368742,0.0963276914276,5
0.7117931156229006,-0.5993806227106134,0.4789758869570814,-0.1310650824199112,-0.332226126165412,0.0296260667713587,5
0.7265853663914263,-0.605006953919007,0.5659875641270286,-0.0897988469785028,-0.3196458782729783,0.002136886316039,5
0.7370963631647498,-0.6450143339345175,0.5962216919526009,0.0045651957152166,-0.267451229216159,-0.0261607836678191,5
0.766487929233116,-0.7164888830930887,0.6044829413017774,-0.0274666370259593,-0.2176655790073257,-0.0043311491311601,5
0.7814747099783325,-0.6831474082258724,0.6203041626020043,-0.058055593310971,-0.2029440139109063,0.00860492838651,5
0.7764137415683615,-0.6810648463101442,0.6141510654311778,-0.0990332496787351,-0.1922374235055576,0.0126474488851917,5
0.7871192683183756,-0.6904414959848123,0.6009679143432032,-0.0975903779505849,-0.2053529996026326,0.008200676998969,5
0.7952943108634044,-0.6839821400101274,0.6064168541265889,-0.0892216982872427,-0.2227512101076793,0.008200676998969,5
0.7900388124767427,-0.6741872709343499,0.6113387558653871,-0.0909531490890372,-0.2596889483217582,0.017094227394686,5
0.7425463915281023,-0.6375136970019684,0.6352455471665946,-0.098167526641845,-0.2698602105224655,0.0134559582835454,5
0.7110149957161377,-0.6314708534104291,0.6855186406437513,-0.0895102726328728,-0.2567446388108103,0.0005198807658751,5
0.7224986423729148,-0.6416805278513886,0.7018654599939084,-0.073638650527121,-0.2147212651109578,-0.0257565256570064,5
0.7606488409163821,-0.6562669963513048,0.6911432597753328,-0.0776786960939558,-0.201338024911562,-0.0285862919930651,5
0.7682402935313385,-0.615634847761076,0.6665337510813419,-0.1108648356736804,-0.2080296450112599,-0.0188842388222661,5
0.7567550523665557,-0.5812520919359956,0.6674121478223212,-0.1226964122125973,-0.2299781584120186,-0.0273735378304421,5
0.7339822890296921,-0.5731249794107643,0.6855186406437513,-0.1068247806508173,-0.2347961254100515,-0.043543633071712,5
0.7509159640498217,-0.5950055356696204,0.7050291282560909,-0.0681557237761076,-0.2385434316133816,-0.0746710561450855,5
0.7581183567113966,-0.6133423226358112,0.7115335841233089,-0.0514183644494232,-0.2497853546087916,-0.0686072720854272,5
0.7458549956398508,-0.6721047090186217,0.7092483126021056,-0.0586327420022311,-0.2602242809118196,-0.0487989143562883,5
0.7407956217378854,-0.7021106707847453,0.6974705962996977,-0.1117305587105706,-0.2931470663619273,0.0069879162130744,5
0.7349549389131458,-0.6898167274100938,0.69852611238353,-0.1879143798054838,-0.3373117572657656,0.0704555628853462,5
0.7080954515577708,-0.6302196092430284,0.6965921995587184,-0.2213890748187817,-0.3568512498914389,0.0947106792541643,5
0.6808453097410084,-0.5591632794855665,0.6844631245599189,-0.2791040905132302,-0.389774022185287,0.1141147988423056,5
0.6650788145810234,-0.5329093432036812,0.6851672819473597,-0.3096930515262561,-0.4210908010943709,0.095923440040059,5
0.6316005244941455,-0.4758130063534533,0.7169825239066945,-0.3016129462085439,-0.4358123618053704,0.0797533381755174,5
0.6012363085423256,-0.4370551634873799,0.7575874932544507,-0.2438979305140953,-0.4451806316991155,0.0538812096332636,5
0.5924776760672246,-0.4339296135958239,0.7718261604262577,-0.1948401830126616,-0.4387566757017383,0.0405408807280523,5
0.5730135168421094,-0.4358056263379431,0.8015332502072426,-0.1769485215754428,-0.4390243398040589,0.036094102218558,5
0.5543274775237574,-0.453725900920988,0.8460060452046219,-0.1558825376082794,-0.4422363178027476,0.0320515817198763,5
0.5348633182986423,-0.4637273191703747,0.8586621582480091,-0.1616540387049228,-0.4368830226000732,0.0389238751778883,5
0.4986600140300882,-0.4608100254703915,0.849696751511392,-0.1789685467228673,-0.4272470886040074,0.0389238751778883,5
0.460509815486621,-0.4480995697125944,0.8249115634692052,-0.2234090999662062,-0.3940566565932585,0.0215410191507237,5
0.453114487356361,-0.4391394324210719,0.8134866458578464,-0.2516894567581633,-0.3651488589904811,0.00860492838651,5
0.453114487356361,-0.4141350332886235,0.8140136839024339,-0.2516894567581633,-0.3646135307858397,0.0150729638337093,5
0.4566176214448003,-0.3962130516876146,0.8277253130296532,-0.2205233470538774,-0.4015512689999186,0.0510514432972049,5
0.4490261688298438,-0.3664153461130637,0.870439874550417,-0.1752170707736484,-0.4746237575065343,0.0943064278666234,5
0.4093197304728506,-0.3689161274299014,0.93055677150517,-0.1509767595485261,-0.5150411422070424,0.1137105474547646,5
0.3834312984929235,-0.386211633438228,0.9607908993307424,-0.1120191330562006,-0.5744627571098808,0.1448379837746815,5
0.3374967118658149,-0.4383064076547805,1.010008476724067,-0.1192335106090085,-0.5915933035126067,0.178795186430657,5
0.2886409865723335,-0.4468500325631575,1.0474497778096403,-0.1365480091709246,-0.587578333206956,0.1994120601814213,5
0.2641158589372475,-0.440180713378936,1.065204911934679,-0.1804114279070459,-0.5819573695165409,0.2414543369511186,5
0.2393962013254706,-0.4160093390127787,1.1207512658470256,-0.1997459610724149,-0.5889166537185596,0.2600499471409062,5
0.2142874837603123,-0.3810018146129799,1.1820979182391491,-0.2242748230030963,-0.6076531891206297,0.2927943956342587,5
0.1977428686935642,-0.3641245280057627,1.2088170191061478,-0.2462065300071499,-0.6143448092203276,0.3340281431357872,5
0.143438709544736,-0.3487033277215915,1.2552237269283386,-0.2606352851127655,-0.6175567872190162,0.3586874843990597,5
0.0922470300229599,-0.3174478288060309,1.3030358695360962,-0.2903585183608871,-0.6229100824216905,0.399516980513047,5
0.0648023582295069,-0.2770222293894112,1.32237067780024,-0.3117130766736806,-0.6017645657133139,0.4104317944697407,5
0.0114708489641325,-0.1820027814573649,1.3206138843182815,-0.3226789301757074,-0.5725891040082158,0.3906234301173302,5
-0.0050737661026156,-0.1253246640082465,1.2919608706264718,-0.3411477497602146,-0.4839920274002793,0.3121985085991283,5
-0.0021542219442486,-0.105736632874655,1.2801845943187211,-0.3137331018211051,-0.3844207225971928,0.2511563967451892,5
-0.0085769001910548,-0.0832330150590442,1.2784263608421054,-0.285741319374778,-0.3407913993667749,0.2422628397262005,5
-0.0231746209828897,-0.0467676973182356,1.3012776360594804,-0.2262948481505208,-0.2808344694155548,0.2531776536828941,5
-0.0255105752111844,-0.0159270037678569,1.306902255191062,-0.1717541691700595,-0.2500530187111124,0.2713690124851408,5
-0.0323239079193778,0.0315827201981661,1.295477337579703,-0.1157706090054195,-0.2342607972054101,0.2604541985284472,5
-0.0395247060729471,0.0190805206319419,1.2750855732370698,-0.0912417234346672,-0.2254278555163065,0.2390288220026009,5
-0.0369942218679616,0.000117258073069,1.2569805204102968,-0.0701757489235321,-0.2042823388079298,0.1986035507830676,5
-0.0313496635279184,-0.0213450787846777,1.2177824258427647,-0.0759472452921614,-0.1839398144065154,0.1783909350431161,5
-0.0420551902779326,-0.0388488409845772,1.2053019921475736,-0.0860473710292839,-0.1761775510537941,0.1747526593087037,5
-0.0478942785946666,-0.0367645720508852,1.2038951173673496,-0.1151934603141595,-0.1708242558511198,0.1711143901975631,5
-0.0391356461195656,-0.0015487914595135,1.1961609060627605,-0.1304879290006369,-0.1823338254071711,0.1682846238615044,5
-0.0218129111460545,0.040126345106543,1.1856143851923808,-0.1293336316181167,-0.1941110766072226,0.1670718630756097,5
-0.013443338624335,0.0586713882643066,1.1836804723675691,-0.1154820346597895,-0.2243571991070236,0.1589868154549748,5
-0.0262902896259532,0.0595044130305979,1.200731449105167,-0.1062476319595572,-0.2406847488173674,0.1509017678343398,5
-0.0486739930094352,0.0463774448896551,1.2283289467131444,-0.0903760003977771,-0.2631685904227676,0.1278593791350579,5
-0.061324819526357,0.0407511136812615,1.2320196530199143,-0.0955703480751462,-0.2645069153197911,0.088242643806965,5
-0.0870171270215876,0.0172045078898227,1.235536119973146,-0.1108648356736804,-0.2626332622181261,0.0639875208148752,5
-0.1002531379765872,0.0288736826897557,1.244148728018714,-0.1452052584518826,-0.2575476311177725,0.0288175639962767,5
-0.1105696047732198,0.0424188702318078,1.2497733471502956,-0.1616540387049228,-0.2492500220187303,0.0106261919474867,5
-0.1339259580401557,0.0730496005726499,1.2464339995399172,-0.1625197664698271,-0.242826070406773,0.002136886316039,5
-0.1530010573118893,0.1003465248303632,1.2453799234507423,-0.1521310616590604,-0.2350637895123722,-0.0120119453642541,5
-0.1533901172652708,0.1151412495218522,1.2510045425823235,-0.1281793295075824,-0.2273015086179715,-0.0265650350553601,5
-0.1654589483601259,0.1134734929713059,1.2694609541054882,-0.1163477624246938,-0.2165949182126228,-0.0370755976245127,5
-0.1868700018601543,0.1045133556797833,1.2650660904112776,-0.097878952296215,-0.1842074785088361,-0.0669902599119915,5
-0.1940708000137235,0.1068058808050482,1.2552237269283386,-0.0877788218310783,-0.1510170640397667,-0.1009474691912388,5
-0.2073068109687232,0.105764599847184,1.2376457121461533,-0.0843159202274894,-0.1389721399665546,-0.1163090616574267,5
-0.2145092036302981,0.0934706564725326,1.2270977512811163,-0.0820073207344349,-0.1247859074601966,-0.1486492521399666,5
-0.2172326233039686,0.0884690938388574,1.2270977512811163,-0.0895102726328728,-0.1210385968714467,-0.1793724370723425,5
-0.2184013976721188,0.0853435439473014,1.2165512304107364,-0.0958589271487905,-0.122644585870791,-0.1910957538041181,5
-0.2127568393320756,0.0782594193978979,1.230438538886152,-0.1143277372772693,-0.1317451916622153,-0.2016063163732707,5
-0.1999098883304575,0.0755503818894876,1.2423904945420985,-0.1371251578621847,-0.1365631542748283,-0.2040318313217884,5
-0.1724652165370044,0.0028262955814794,1.2944218214958707,-0.1518424873134304,-0.1397751322735168,-0.2016063163732707,0
-0.2143130791456016,-0.2674373235231701,1.5036012054001355,-0.1974373615793603,-0.1437901069645875,-0.1603725754950139,0
-0.2892517663957008,-0.3787109965056789,1.77430292104472,-0.2060946108603184,-0.0059427478212382,-0.0390968611854894,0
-0.5232107370504637,-0.4816475937534198,2.165239870593468,-0.154439661152115,0.2180926627695422,0.0041581498770157,0
-0.6557621875611394,-0.4349726015716517,2.445609710367453,-0.0401639366017664,0.9145563892489488,0.0490301797362283,0
-0.7001405343747222,-0.372458189704603,2.522424785368755,0.3144948419562813,1.9161579554370527,0.1444337257638688,0
-0.9054876533758875,-0.2857741104893609,2.203383889071825,0.5442005695274419,2.46513856857926,0.2766242937697171,0
-0.611189310770866,-0.2224283808739847,1.7010028730019926,0.6056670989952228,3.2073727600762747,0.5745582817007728,0
-0.0743663005046659,-0.2593102109979389,1.559498918008874,-0.0721957740709566,3.193989519876878,0.5684944976411145,0
0.679092945442786,-0.0334307659677564,1.1708486799759863,-0.4715836518498882,3.008765487445583,0.4520697999820819,0
0.8299413753184324,0.4377078990346274,0.5065733845650587,-0.7673731504270666,2.5834464043989964,0.2107311255256559,0
0.8474586402686342,0.477298766666992,0.2734886493542438,-0.2779497884026959,2.199614967774413,0.1852632218778563,0
0.8264382412299931,0.2234976288043777,-0.0896736832436735,-0.0560355681635465,2.0325921381551253,0.203454580680103,0
0.8270218311600653,0.2220381284454042,-0.2742435584539475,0.0042766213695866,1.7247776354961206,0.195369533059468,0
0.9118847362374044,0.3176823449521689,-0.6695739317022489,0.0077395229731754,1.3283662184897154,0.0963276914276,0
1.141367922920274,0.1655682671878585,-1.1631666603783175,0.0290940765579547,1.0478534542674258,0.0405408807280523,0
1.3264727627895612,0.1097231745050313,-1.389395581025523,0.0161082026365177,0.2817968989240924,-0.0326288191150184,0
1.579897487177445,0.1934899600202902,-1.3974825910211608,0.0328455525071737,-0.1783188726431998,-0.0483946629687473,0
1.721596630116603,0.3514403322025308,-1.155256769725533,0.1257667329287713,-1.1087216078117734,-0.0952879365191215,0
1.6254430138511722,0.5158483533414925,-1.049964360380617,0.3118976633895825,-2.067496807993063,-0.2860950683140327,0
0.9159730547639215,0.8546692279047302,-0.7049070806094726,0.5309261165323605,-2.5353749920173523,-0.4732639243745317,0
-0.2156763834904426,0.766109135947369,0.0613212765359924,1.3230647614290303,-3.326591832645399,-0.9013672101271872,0
-0.730504750326542,0.4583372111260828,0.3344839430499761,2.378383701253776,-3.62557340238614,-1.1552377835697312,0
-1.0637314113817935,-0.976332864547242,0.5419050934776252,2.589332228743381,-3.567490143078264,-1.1439187182254966,0
-0.9405237777842969,-1.8996486390111005,1.1893050914991508,1.72274110953728,-3.350949331737884,-0.7081346031233885,0
-0.8846617843139369,-1.870475702011268,1.4575458562743364,0.669730769205589,-2.906090453471653,-0.0213097537707838,0
-0.7445188811883048,-1.3245303887851478,1.5995768493120426,0.3615325406702196,-2.2620892418807004,0.3037092095909523,0
-0.5841336989307944,-0.8825646607825968,1.6442253236576176,0.2945831600996522,-1.9639105372697452,0.3247303347292576,0
-0.5983423597692478,-0.574376223578165,1.637722307785057,0.2348481003457224,-1.3972643126453643,0.2135608918617145,0
-0.6983881700764997,-0.3159883284470575,1.6788543151774007,0.2394652993318315,-1.1322761759931743,0.1092637689452703,0
-0.8198450338837797,-0.5404099801362303,1.7431903964781683,0.241485324479256,-0.5905226427179038,-0.2003935622106477,0
-0.8147840654738088,-0.6837738838185545,1.8113928634339025,0.0423685295530361,0.0470548760008638,-0.6066672200499161,0
-0.7217461178514412,-0.6789805773764521,1.8135024556069097,-0.2066717642795927,0.8430898897416775,-0.977770921070586,0
-0.6573184273746656,-0.4491408506704585,1.5146747643151026,-0.2727554407253267,1.2507434270873876,-1.149173999510073,0
-0.6345456640378019,-0.4164258513959245,1.299168043886473,-0.3561536535570904,1.957110668342203,-1.4527674671270725,0
-0.6000947240674703,-0.3241154409722885,0.9347745158565276,-0.3463421021655979,2.53259009778088,-1.7240208436106077,0
-0.622867487404334,-0.4510168634125778,0.6436824758639669,-0.289781369669627,2.7900836220264096,-1.833977499199169,0
-0.7330352345315275,-0.4076739702959747,0.4958511843464833,-0.1873372311142237,3.2121907226888875,-1.9087642973182075,0
-0.7526939237333335,-0.2566011734895284,0.3610273645687785,-0.0952817737295162,3.34736144080903,-2.02518899497724,0
-0.6592653216495786,-0.4249694763043014,0.1761061306621128,-0.0571898655460667,3.2761626097894987,-2.137975423525132,0
-0.2997611686610185,-1.2232598410699895,-0.0100462986765809,-0.2052288878234283,2.9431876113456275,-2.2475278277261523,0
0.0984767728010811,-1.3695393314343334,-0.1076044967169078,-0.3754881867224593,2.0465107109445824,-2.022359228641181,0
0.9404981823990076,-1.3136942387515065,-0.3714503977978827,-0.334221951281051,1.5226907207644194,-1.7769779078439116,0
1.1396171531300572,-1.5772902456898985,-0.2454163054085992,-0.082584469425695,0.5866670920721488,-0.9943452676993968,0
0.9194761888523608,-1.6352196073064174,-0.0228780910681639,0.0008137197659977,-0.0669703166400617,-0.1292451325518253,0
0.4575902713282541,-1.2841047893685282,0.3139179393538042,0.0071623742819154,-0.2479117015071266,0.1480720014982811,0
0.5013850282117644,-0.8544330047406284,0.4788002076088855,0.1029692934317993,-0.4085105532019373,0.3231133225558219,0
0.5955917502022824,-0.7575375440664631,0.5434876476060451,0.1205723757953738,-0.4400950005987618,0.297645425531294,5
0.6845429738061385,-0.7219052510919457,0.6754991578179591,0.0813261607733757,-0.437953683394776,0.2802625695041295,5
0.7546152226229573,-0.5916700225685279,0.8110256949884472,0.0224568524244212,-0.3956626455926028,0.2349862948806475,5
0.8087248517950948,-0.5289490615278701,0.8442478117280062,-0.0245808841136305,-0.3241961811686905,0.1893057489998096,5
0.8527141386552959,-0.4343461259789695,0.8354595243342422,-0.0837387715362293,-0.2974297007698989,0.186880234051292,5
0.7542245681615702,-0.3272409908638446,0.8377447958554455,-0.2089803637726472,-0.2554063139137867,0.1581783126798928,5
0.7314518048247066,-0.2886914041893441,0.8866110145523781,-0.0551698403986422,-0.1590470046510682,0.0073921676006153,5
0.8126186403449213,-0.3814183269961256,0.9062986215075708,0.0308255273597492,-0.1006960724700322,-0.0746710561450855,5
0.9002065596039364,-0.5024851620364481,0.8507522675952243,0.0178396534383121,-0.035385873628657,-0.1288408811642843,5
0.8992339097204826,-0.4979018188038824,0.8201667810732602,-0.1221192635213373,-0.0551930654400101,-0.0843731159391562,5
0.8445390961102673,-0.3939222335803136,0.8003034947698717,-0.1613654643592928,-0.0808888894295188,-0.0742668047575445,5
0.7904294669381299,-0.3455777778300354,0.8344040082504098,-0.105093334577037,-0.1229122499731117,-0.1126707925462861,5
0.7797239401881157,-0.3622485152636435,0.8695600378147804,0.0403485044056116,-0.1322805198668567,-0.1769469221238248,5
0.7877044527564536,-0.4499755824547136,0.9047160673791508,0.08190331419265,-0.1266595605618616,-0.1983722986496711,5
0.7865356783883034,-0.5087362618195603,0.8999698449885486,0.0752660853311023,-0.1148823093618101,-0.2072658556686597,5
0.7805020600948787,-0.5306168180784164,0.9024307958579476,0.0267854770649002,-0.1079230251597915,-0.1915000118149308,5
0.7682402935313385,-0.548953605044607,0.9186033758545662,0.0028337449134221,-0.1004284083677115,-0.1813937006333191,5
0.7707691832283183,-0.5199889242363475,0.9168451423779506,-0.0465125911176841,-0.0750002616367832,-0.1644150959936955,5
0.7707691832283183,-0.5093627374122425,0.9106934852017814,-0.0745043735640112,-0.0559960577469723,-0.1607768268825549,5
0.7627902651679861,-0.4633108067872291,0.898388730854786,-0.0733500714534768,-0.0533194123383451,-0.1652235987687775,5
0.7592855365715412,-0.4524746567535874,0.8973332147709536,-0.0289095087541096,-0.0493044376472744,-0.1890744968664131,5
0.7606488409163821,-0.4778972752871453,0.9004983230277934,0.016973930401422,-0.0450218076247228,-0.2052445921076831,5
0.7528628583247349,-0.5310333304615621,0.9112205232463688,0.0210139759682568,-0.0452894717270435,-0.2040318313217884,5
0.7287267906430304,-0.5485370926614616,0.9057715834629834,-0.0118835798098093,-0.0415421655237135,-0.1886702388556004,5
0.7236658222330594,-0.5314498428447076,0.8975088941191496,-0.0571898655460667,-0.0332445564246713,-0.1733086530126842,5
0.737679953094822,-0.478105531478718,0.8888962860735814,-0.0586327420022311,-0.0303002425283034,-0.1692661258907309,5
0.7479964198914547,-0.4862326440039493,0.8860839765077907,-0.0364124606525475,-0.031638567425327,-0.1664363595546722,5
0.7497487841896772,-0.4920672314039158,0.885556938463203,-0.0387210648736162,-0.0442188109323407,-0.1619895810451779,5
0.7357346533279144,-0.4956092936786174,0.8888962860735814,-0.049975492721273,-0.0482337812379915,-0.1567343063838732,5
0.7314518048247066,-0.4576844755788354,0.8948722639015546,-0.0713300463060523,-0.0479661215210906,-0.1490535101507793,5
0.7433261059428709,-0.4391394324210719,0.898564410202982,-0.0635385200619844,-0.0490367735449537,-0.1462237438147206,5
0.7678496390699513,-0.426220720471702,0.90348631194178,-0.0537269639424778,-0.0543900687476281,-0.1450109830288259,5
0.7797239401881157,-0.4312205760874134,0.9124502786837398,-0.0381439114543419,-0.077944575533151,-0.1450109830288259,5
0.7834216042532457,-0.4358056263379431,0.9251063917271268,-0.0211179825100416,-0.1095290141591358,-0.1413727139176853,5
0.7890661625932889,-0.4499755824547136,0.9432128845485572,-0.0188093830169871,-0.1247859074601966,-0.1340961624488607,5
0.8007443392267569,-0.4651868195293483,0.9370597873777308,-0.0600756184583955,-0.1641326357514219,-0.1057984990882741,5
0.8030802934550516,-0.4585192073630904,0.93424747781194,-0.1428966589588281,-0.2264985163110093,-0.0811390982155565,5
0.7902333424534334,-0.3916297084550487,0.973974050418717,-0.1625197664698271,-0.2618302699111639,-0.0795220860421208,5
0.7746629717781447,-0.3524553532058296,1.054481271721446,-0.1466481349080471,-0.3183075533759548,-0.0981177028551801,5
0.7600652509863098,-0.3424522279384793,1.0862979536754382,-0.170022718368265,-0.34266505246844,-0.137734438183273,5
0.7444932858030154,-0.3064034225808164,1.1021177349810078,-0.1985916589618805,-0.3512303256698029,-0.1543087914353556,5
0.7005039989428142,-0.2711876419894446,1.1588952843253826,-0.1933973065564972,-0.3579219106861417,-0.1729044016251432,5
0.6841539138527569,-0.2974432852892938,1.1734853101935814,-0.1345279840235001,-0.3217871954769641,-0.1789681856848015,5
0.6715030873358352,-0.3735011776804309,1.176473299107568,-0.1218306891757072,-0.3003740146662667,-0.1720958922267895,5
0.6360779029740442,-0.4172605831801794,1.1822735975873453,-0.1558825376082794,-0.2620979340134847,-0.1526917792619199,5
0.6090222911339727,-0.4020476390875812,1.1842075104121568,-0.2009002584549351,-0.2117769512145899,-0.1749256585628482,5
0.5897526618855483,-0.3470372781890088,1.1719027560651614,-0.2144632905236606,-0.1839398144065154,-0.2117126275548823,5
0.5967605245704325,-0.3114049852144916,1.1458878125856038,-0.2410121776017665,-0.1483404142457196,-0.2905418468235271,5
0.5971495845238141,-0.3109884728313459,1.1372737645453783,-0.243032202749191,-0.1432547743745262,-0.3253075588778563,5
0.5700939726837424,-0.3476620467637275,1.143075503019813,-0.2381264294174519,-0.1486080783480403,-0.3232862953168796,5
0.5317492441635845,-0.3570386964383956,1.1655754195407966,-0.226583427224165,-0.1635973075467804,-0.2990311524549747,5
0.5144265091900734,-0.3401614098311784,1.18807533606178,-0.2185033219064529,-0.1718949166458226,-0.2755845057448801,5
0.4725786465814762,-0.3103637042566274,1.2081143017133644,-0.2179261921272495,-0.1708242558511198,-0.2691164702976808,5
0.4282002997678935,-0.2649365422063326,1.2249881591081089,-0.2098460868095373,-0.1662739573408275,-0.2622441768396688,5
0.399781383582981,-0.274939667473683,1.2386997882353283,-0.1994573867267849,-0.1419164538629225,-0.2691164702976808,5
0.3534577370024908,-0.3153635598723389,1.2573318791066883,-0.2026317092567295,-0.1033727222640793,-0.2715419852461985,5
0.3320466835024624,-0.2643117736316142,1.2562778030175137,-0.2037860113672639,-0.0846361956328489,-0.2679037095117861,5
0.3336029233159884,-0.239097411289629,1.2643633730184942,-0.1988802333075106,-0.0367241985256806,-0.2715419852461985,5
0.3378857718191964,-0.2132599873908894,1.284929376714666,-0.1832971808193747,0.021359056396775,-0.2711377272353858,5
0.3312685635956994,-0.1309509952166402,1.3258871447534712,-0.1610768900136628,0.0475902042055053,-0.2670952067367041,5
0.3357443475675924,-0.0851090278011633,1.3285237749710663,-0.0912417234346672,0.0955021969272537,-0.2622441768396688,5
0.3435303301592396,-0.0619789343928703,1.3014533154076762,-0.0254466071505207,0.1268189758363376,-0.2610314160537741,5
0.3544303868859445,-0.0909419081831661,1.2953016582315071,-0.0043806326393856,0.1353842490377005,-0.2618399254521278,5
0.3472279942243696,-0.1203231013745713,1.3049683423662504,0.0103367015398742,0.1418082138059175,-0.2622441768396688,5
0.3190052025241535,-0.1801284757332096,1.3125268743226437,0.0051423491344909,0.1428788746006203,-0.2622441768396688,5
0.3100520400723618,-0.2024238373572477,1.2960043756242905,-0.0335267124682328,0.1522471401089454,-0.2674994581242452,5
0.3088848602122173,-0.1957562251909899,1.2873903275840652,-0.0802758699326404,0.1790136029660576,-0.2852865655389507,5
0.3143348885755698,-0.2013825563993835,1.2657702477987185,-0.1192335106090085,0.2119363708744858,-0.3059034459129867,5
0.3297107292741677,-0.2190945747908557,1.225340957799158,-0.1359708557516503,0.2282639249702494,-0.312775732747727,5
0.3462553443409158,-0.2126352188161707,1.203543758670958,-0.1561711119539094,0.2558333976760033,-0.3147969963087036,5
0.3851836627911461,-0.1895051254078777,1.1606535178019983,-0.1590568648662382,0.2633280100826634,-0.3099459664116683,5
0.4182728929246423,-0.1578314070912078,1.1179389562812347,-0.1521310616590604,0.2603837005717154,-0.3026694215661154,5
0.4357901578748442,-0.1484547574165396,1.0920982521552156,-0.1351051327147602,0.2413794966819046,-0.3063076973005277,5
0.4577848013049448,-0.1605404445996182,1.0390128491122683,-0.1278907551619524,0.231475902968938,-0.3087332122490454,5
0.4595371656031672,-0.1847118189657753,1.0028027434587226,-0.1209649614108029,0.2205016440758487,-0.312775732747727,5
0.460509815486621,-0.1972140185319996,0.9941886954184972,-0.1270250321250622,0.2111333785675236,-0.318435272043116,5
0.483478703308181,-0.2013825563993835,0.9767863599845076,-0.1342394049498559,0.2020327727760993,-0.3168182598696803,5
0.5259101558468506,-0.1690840695079951,0.959559703898714,-0.1443395354149925,0.1749986326604068,-0.298626894444162,5
0.5447907251418934,-0.1503307701586587,0.9528810086779576,-0.1325079541480614,0.1348489208330591,-0.2666909553491632,5
0.5642548843670084,-0.0951104460505501,0.9634275295483372,-0.1160591833510496,0.1059411232302817,-0.2476910937718346,5
0.5714556825205778,-0.0690630589422737,0.9783689141129276,-0.0710414719604223,0.043039905695213,-0.214946645278482,5
0.5730135168421094,-0.0784397086169418,1.0066691291136884,-0.0545926917073821,0.0210913922944542,-0.2040318313217884,5
0.5687306683389015,-0.0915683837758483,1.0129979056327107,-0.0416068130579308,0.0023548612778039,-0.1923085145900128,5
0.5728189868654187,-0.089900627225302,1.0189738834606838,-0.0531498152512177,-0.0038014306172524,-0.1898829996414951,5
0.5765166509305486,-0.0728133774085482,1.049383690634452,-0.0664242729743132,-0.0072810727182617,-0.1878617360805184,5
0.5702885026604332,-0.0309299846509188,1.0783880630226534,-0.0895102726328728,-0.0206643085322377,-0.1737129044002252,5
0.5677580184554477,-0.0050925607521789,1.0875277091128093,-0.0854702223380238,-0.0404715047290107,-0.1607768268825549,5
0.5685361383622108,0.0159549707403858,1.1082708321518344,-0.0771015426746816,-0.0493044376472744,-0.1615853296576369,5
0.5734025767954909,0.0205383139729517,1.1305950693246218,-0.0586327420022311,-0.062955341948991,-0.1632023418310725,5
0.5763221209538579,0.0238721200560805,1.1360440091080075,-0.034392435505123,-0.0677733089470239,-0.1571385577714142,5
0.5848862234522682,0.0286654264981828,1.132880340845825,-0.0214065568556717,-0.0677733089470239,-0.1526917792619199,5
0.5918940861371523,0.0488782262064928,1.13762512324177,0.0129338753785588,-0.0664349840500003,-0.1567343063838732,5
0.607464456812441,0.0284571703066101,1.1527436271492135,0.041791380861776,-0.0653643276407174,-0.1898829996414951,5
0.6129144851757935,-0.0605194340338967,1.1929972378005782,0.0403485044056116,-0.0650966635383966,-0.2072658556686597,5
0.5681470784088293,-0.133035264150332,1.2469610375845048,0.0109138502311343,-0.079818228634816,-0.221414687348953,5
0.5366156825968648,-0.1469952570575661,1.316043341275875,-0.0447811403158897,-0.1325481839691775,-0.2076701070562007,5
0.4591481056497857,-0.2334727870991992,1.567057449965267,-0.0874902474854483,-0.1702889276464783,-0.1878617360805184,0
0.291171470777319,-0.3091124600892269,2.034458115818925,-0.178391393303593,-0.1831368220995531,-0.0750753141558982,0
0.1350691370230166,-0.2345140680570633,2.272817551459587,-0.121542110102063,0.2111333785675236,0.0235622827117004,0
-0.2403960411022194,-0.2697298486484349,2.6938115094910544,-0.0121721541554393,0.6498359824803781,-0.0144374603127718,0
-0.4831152387400889,-0.280564291664113,2.5371904905851497,0.5017800319754991,1.9075926822356903,-0.1462237438147206,0
-0.7044217883699243,-0.2061741558235222,2.2921523597237305,0.8665389031745699,3.2132613834835904,-0.0552669564267593,0
-0.7044217883699243,-0.3541214027384124,1.4190504790995877,0.729177235701832,3.691310693760571,0.0999659605387407,0
0.4953514099183397,-0.2832733291725232,0.6417485630391553,0.0827690372295401,4.010367119414985,0.5406010790447973,0
0.7684348235080293,-0.0805239775506338,0.4005782578273597,-0.3148873992036252,3.595486699546234,0.743940096579283,0
0.610384000970808,0.3249764327111089,-0.3136187723643329,-0.3495164294235568,3.331836883405648,0.7625357067690707,0
0.5198765375534259,0.5152235847667741,-1.1130692462493568,-0.1579025627557039,2.8917959721374498,0.6485364776956538,0
0.4836732332848718,0.5468973030834441,-1.4619929116754673,0.0267854770649002,2.411070283962455,0.3267515982902342,0
0.6045449126540741,0.3528981255435406,-2.166346138389564,0.0103367015398742,2.0869280912596704,0.1323061576445522,0
0.926289521560554,-0.012593197684728,-2.9666750090155665,0.0120681523416687,1.1696409979694704,-0.1749256585628482,0
1.0621495761829784,-0.1388698515502986,-3.1102885561816924,0.0331341268528037,-0.1285332136635267,-0.3067119486880686,0
1.0339251899747566,0.1505652863047967,-2.5664227340284675,0.08219188853828,-0.7685196610635624,-0.3293500727532663,0
0.9767014866675616,0.4037416555926925,-2.122224702088576,0.2810201280309267,-1.7583439804370349,-0.3722008258049587,0
0.9825405749842956,0.4629205543586486,-1.954882922958753,0.4120331835398745,-2.599079210630223,-0.4498173041575238,0
0.8947565312405839,0.4379161552262001,-1.404688324286505,0.4960085308788556,-3.019312658191036,-0.501965845745931,0
0.1181354620028869,0.3389381326363065,-0.4088916988834564,1.036221053382341,-3.81615073002011,-0.5856460949116109,0
-0.363798204676407,0.1547321171542169,-0.1019784375906689,2.0843256865744912,-4.220592223585833,-0.6135395135079281,0
-0.7279742661215566,-0.2026320935488204,0.6371780199967487,2.0932715149290937,-4.155549680075939,-0.6341564137517792,0
-0.1177719974347947,-2.096771659424596,1.9504358675576217,1.5120812982337308,-3.4612272225608995,-0.4380939874257482,0
-0.1393759864035082,-2.1332386841833686,2.017935617120572,0.5955669732581004,-2.3075922576815624,0.3611129993475772,0
-0.1458002591583201,-1.0542667696804982,2.0673288738620923,-0.0254466071505207,-1.8769194803590925,0.6161962805898423,0
0.1650442930214551,0.4939695041006001,2.267895649720789,-0.3316247727143522,-1.2618259304229014,0.5563669228985262,0
0.3065489059839226,0.6300393200239846,2.223071496027018,0.0830576115751702,-0.8006394366650283,-0.0338415799009131,0
0.316474718319168,0.2199538595117122,2.0673288738620923,0.182616006674273,-0.6213040934223463,-0.2727547394088214,0
0.1342910171162535,0.186197579279314,2.092114061904279,0.1730930296284107,-0.2781578196215077,-0.5811993164021166,0
0.1259198500865284,0.1643187300384216,2.0407868923379477,-0.0072663808237002,0.1514441478019833,-0.7210706806410588,0
0.2872792767354982,0.1670277675468321,1.828970878216088,-0.1270250321250622,0.3744088800563814,-0.7517938125872612,0
0.4091252004961598,0.2689230838367089,1.5538742988772922,-0.3016129462085439,0.7759060290277975,-0.8815588457747767,0
0.4326760837397865,0.2822583081692243,1.418523441055,-0.3324905004792565,1.0633780116708074,-1.1330038976455312,0
0.4976873641466344,0.1984915226539654,1.1587196049771866,-0.2993043467154894,1.161343388870428,-1.2720666332672297,0
0.6613811505158933,-0.0559360908013309,0.8730765047680118,-0.33855057592153,1.2660003203884482,-1.5275541658970355,0
0.7293103805731026,-0.1297014580672032,0.7966113484684444,-0.4995754390242294,1.2941051256842635,-1.7143187838165366,0
0.779529410211425,-0.3712086525551661,0.7083699158611264,-0.5471903242535413,1.310700339496928,-1.801637308716629,0
0.7622050807299081,-0.6989851208931892,0.6104603591244079,-0.6204883971641401,1.3572740160924928,-1.9366577159145244,0
0.7392377874163537,-0.7787933317506008,0.5731947373870299,-0.7111010111887823,1.3706572519064688,-2.000529600727794,0
0.7388487274629723,-0.9982134208060982,0.4401291510859409,-0.7575615990355741,1.344693768200059,-2.010635911909405,0
0.749943314166368,-1.124488367653705,0.3640153534827651,-0.7561187225794097,1.197210470675224,-1.9447427635351595,0
0.8242968169783891,-1.1936703916870115,0.3111056297880135,-0.5959595163214018,0.9587210801527872,-1.737361172515819,0
1.0222470133412886,-1.1970041977701402,0.3568081802227636,-0.5177556653510499,0.8115054467302729,-1.5158308425419882,0
1.1818540756920362,-1.1688725417281722,0.4656170565209109,-0.3878969166806505,0.4654149072726851,-0.7930275600887897,0
1.1446765270320227,-1.0127998893060144,0.5213390897814534,-0.0872016731398182,0.1337782644237762,-0.034650082675995,0
1.0749949326765909,-0.6325121343682932,0.5612413417364261,0.0619916417920493,0.0101171377867848,0.1597953182300567,0
1.088620003584972,-0.5370761740531014,0.6034288652126023,0.2484111276864338,-0.1520877204490496,0.1739441565336217,0
1.1238506579700722,-0.5458280551530511,0.7270020067324866,0.2492768507233239,-0.1834044862018739,0.095519188652518,0
1.1836064399902584,-0.484773143644976,0.7526670315103099,0.121726673177894,-0.1644003042391625,-0.0382883517871357,5
1.2155268957556045,-0.426220720471702,0.7614553189040738,0.0452542824653649,-0.1298715385605502,-0.0625434880257689,5
1.1962572665071802,-0.3089042038976539,0.8020602882518302,0.0524686647461869,-0.1218415935638288,-0.050820177917265,5
1.1773766972121371,-0.2945259915893106,0.8458303658564261,0.0654545433956382,-0.1081906892621122,-0.0536499442533236,5
1.1744571530537704,-0.3168230602313124,0.8776470478104184,0.0204368225489825,-0.076070922431486,-0.0762880683185212,5
1.149348435488612,-0.2659795301821603,0.9124502786837398,-0.0121721541554393,-0.0522487515436423,-0.0867986375109455,5
1.1353343046268494,-0.211592230840343,0.8941695465087712,-0.0589213163478611,-0.0064780760258796,-0.1191388346167571,5
1.1409788629668929,-0.1992982874656916,0.8904788402020013,-0.0635385200619844,0.0181470783980864,-0.1652235987687775,5
1.1629735063969933,-0.1778359506079448,0.8890719654217772,-0.0571898655460667,0.0235003779861806,-0.1882659874680594,5
1.1658930505553602,-0.1911711749404603,0.8729008254198161,-0.0381439114543419,0.0293890013934964,-0.221414687348953,5
1.163168036373684,-0.2647282860147597,0.8249115634692052,-0.0124607332290836,0.0240357061908221,-0.2294997349695879,5
1.1481812556284676,-0.3095289724723725,0.8143650425988256,-0.0029377561832212,0.0173440860911242,-0.2286912255712343,5
1.1454562414467913,-0.3274492470554176,0.8143650425988256,-0.006689227404426,0.0044961784817897,-0.2230316995223887,5
1.1442874670786412,-0.3530801217805483,0.8291307478152201,-0.0147693327221381,-0.0021954416179081,-0.2157551546768357,5
1.1501265553953752,-0.3314095287312287,0.8400286273819915,-0.0358353119612874,-0.0112960430239125,-0.1947340295385304,5
1.151295329763525,-0.2968185167145754,0.8391502306410122,-0.0407410852930265,-0.0209319770199783,-0.1826064547959421,5
1.15732894805695,-0.2697298486484349,0.8342283289022141,-0.0317952616664384,-0.0246792832233083,-0.1846277183569188,5
1.1520734496702882,-0.2770222293894112,0.8340526495540181,-0.0009177310357967,-0.0289619176312799,-0.1951382809260714,5
1.1454562414467913,-0.2914004416977545,0.8379204752036413,0.022168273350777,-0.0273559286319356,-0.2076701070562007,5
1.135723364580231,-0.3318260411143743,0.8604203917246248,0.0267854770649002,-0.0265529363249734,-0.2100956153814467,5
1.1184006296067197,-0.3707921401720204,0.876591531726586,0.0143767518347232,-0.0228056301216433,-0.206457346270306,5
1.1069169829499426,-0.3730846652972852,0.8746576189017744,-0.0251580328048906,-0.0139726928179596,-0.2024148257716244,5
1.1147029655415897,-0.3551643907142401,0.8685059617256053,-0.0410296643666707,-0.009957718126889,-0.2003935622106477,5
1.1421476373350428,-0.305570397814525,0.8744819395535784,-0.0447811403158897,-0.007013408615941,-0.1894787482539541,5
1.1454562414467913,-0.2853575981062152,0.87799840650681,-0.0115950054641793,-0.0096900540245682,-0.1704788866766255,5
1.127159262081821,-0.2874418670399072,0.8897746828145606,0.0109138502311343,-0.0096900540245682,-0.1619895810451779,5
1.1164537353318065,-0.2882748918061986,0.9026064752061436,0.045831431156625,-0.0019277775155874,-0.1518832764868379,5
1.120347523881633,-0.2920252102724731,0.9115718819427606,0.0478514610320637,0.006102167481134,-0.1543087914353556,5
1.1308569261469508,-0.2974432852892938,0.913857153463964,0.0282283535210646,0.007172823890417,-0.1559257969855196,5
1.1279373819885838,-0.2582689300400748,0.8802836780280133,-0.0205408338187816,-0.0011247808232053,-0.1454152344163669,5
1.1281335064732805,-0.2382643865233378,0.8581351202034215,-0.026312334915425,-0.0147756851249218,-0.1264153662157666,5
1.134167124766705,-0.1817945252657921,0.8261427589012333,-0.0081321038605904,-0.0214673052246197,-0.1227771037278977,5
1.1287170964033524,-0.1386615953587258,0.8215722158588269,0.0334227011984338,-0.0359212018332985,-0.1535002820370019,5
1.124823307853526,-0.1447044389502651,0.815244879334462,0.0394827813687215,-0.0452894717270435,-0.222223190124035,5
1.1366976089716905,-0.1734591565489881,0.8050482771658166,0.0406370787512416,-0.0450218076247228,-0.2545633872298465,5
1.1265756721517484,-0.1874208564741857,0.8217478952070228,0.0547772642392414,-0.035385873628657,-0.2945843673222087,5
1.1032193188848125,-0.2086749371403597,0.8235061286836385,0.0651659690500081,-0.0190583239183132,-0.3054991945254457,5
1.0625386361363598,-0.2757726922399743,0.8240331667282261,0.0588173145340904,-0.0163816741242661,-0.3022651701785744,5
1.058255787633152,-0.2999440666061315,0.8333499321612349,0.0195710995120924,-0.008887061717606,-0.3010524160159514,5
1.0672105445929494,-0.3309913093301192,0.8577837615070298,-0.0144807583765081,0.0007488722784597,-0.3075204514631507,5
1.062344106159669,-0.3191138783386134,0.8653422934634228,-0.0998989774436395,0.0229650453961193,-0.3240948047152333,5
1.0596190919779929,-0.2947342477808833,0.8753617762892151,-0.1426080846131981,0.028853673188855,-0.3434989044335595,5
1.0784996612730358,-0.2543103553822274,0.8971575354227579,-0.1449166841062526,0.0261770233948079,-0.3540094670027121,5
1.1001036502417492,-0.2578524176569293,0.8976860134620027,-0.1348165583691301,0.020288399987492,-0.3722008258049587,5
1.1006888346798271,-0.2753561798568286,0.8924113130321556,-0.1151934603141595,0.0245710343954636,-0.3903921846072053,5
1.0831699752216195,-0.3086959477060811,0.8778227271586142,-0.1062476319595572,0.0304596621881993,-0.3952432145042406,5
1.0804449610399431,-0.3122380099807829,0.879052482595985,-0.093838902001366,0.0395602635942037,-0.3960517239025943,5
1.0847278095431512,-0.3084876915145084,0.8802836780280133,-0.0895102726328728,0.0400955917988452,-0.4021155079622526,5
1.0855059294499143,-0.2978597976724395,0.8860839765077907,-0.0909531490890372,0.0400955917988452,-0.410604820216972,5
1.070324618728007,-0.2859823666809337,0.8961034593335827,-0.0912417234346672,0.039292599491883,-0.4271791734690546,5
1.052416699316418,-0.2970267729061483,0.9004983230277934,-0.0923960255452016,0.0411662482081281,-0.4457747836588421,5
1.036650204156433,-0.3307830531385465,0.9003226436795977,-0.0932617485820917,0.0470548760008638,-0.4566895976155357,5
1.0129047909361155,-0.3674583340888916,0.8992671275957652,-0.102496151282324,0.0724830358880518,-0.471646912201096,5
0.98857419327772,-0.3830860835466719,0.8917085956393722,-0.1079790827613516,0.1129004074323003,-0.4853914924938483,5
0.9665795498476196,-0.4172605831801794,0.8707912332468085,-0.1108648356736804,0.1308339505274083,-0.4975190672364366,5
0.97631242671418,-0.4295545265548309,0.8565525660750015,-0.1226964122125973,0.1493028305979975,-0.5153061746511423,5
0.97514365234603,-0.4170523269886066,0.85620120737861,-0.1224078378669673,0.1402022248065732,-0.5100508933665658,5
0.9578209173725186,-0.4130920453127956,0.852157702380791,-0.1128848608211049,0.1294956256303847,-0.5080296298055892,5
0.945363026324282,-0.4414319575463367,0.8351067256431932,-0.0955703480751462,0.1171830462256917,-0.5112636475291888,5
0.9377731682173313,-0.4491408506704585,0.8321187367292066,-0.0811415976975447,0.1217333491214039,-0.5068168756429662,5
0.923564507378878,-0.4478913135210217,0.8463574039010135,-0.0704643232691622,0.1257483194270547,-0.5007530849600362,5
0.9081870721722743,-0.461226537853537,0.8516306643362035,-0.0577670142373268,0.1335105959360355,-0.4991360794098722,5
0.8850252488820292,-0.4991513559533193,0.8296577858598075,-0.0655585452094089,0.1479645057009739,-0.5132849110901655,5
0.8883338529937778,-0.5364514054783828,0.7834281973804698,-0.0727729227622167,0.1557267822099547,-0.5185401923747419,5
0.901180803995396,-0.5587467671024211,0.7607526015112905,-0.0889331239416127,0.1656303803083413,-0.5149019232636012,5
0.917725419062144,-0.5854189227854159,0.7190921160797019,-0.1048047555033928,0.1624184023096527,-0.4853914924938483,5
0.9229793229408,-0.5727084670276187,0.6870997547775138,-0.1071133597244615,0.1549237899029926,-0.4672001336916016,5
0.9284293513041524,-0.5558294734024377,0.6760261958625466,-0.0964360758400506,0.1244099945300311,-0.4356684724772306,5
0.9233699774021872,-0.5345753927362638,0.6716313321683359,-0.0817187463888048,0.1011231562322488,-0.4235408977346422,5
0.9089651920790373,-0.5483288364698886,0.6902648630343536,-0.0390096392192462,0.0491961932048496,-0.4057537903199367,5
0.9070198923121298,-0.5812520919359956,0.6939555693411236,-0.0505526414125331,0.0173440860911242,-0.3948389631166996,5
0.8725673578337925,-0.7169053954762343,0.7030966554259366,-0.1033618790472283,0.0143997765801762,-0.3936262089540766,5
0.8562172727437352,-0.6914827769426763,0.6746193210823225,-0.2609238594583956,0.0368836181855764,-0.4134345865530306,5
0.8665337395403677,-0.6400144783188061,0.639463291517952,-0.3714481364276104,0.0604381162002596,-0.4413280051493479,5
0.8896955628306129,-0.555412961019292,0.6046586206499732,-0.3809711134734728,0.0561554774068682,-0.4413280051493479,5
0.8891119729005407,-0.5108205307532522,0.6213582386911792,-0.2952642964206404,-0.0011247808232053,-0.392413448168182,5
0.8552446228602814,-0.4664363566787852,0.7117092634715046,-0.1290450572724867,-0.1105996705684187,-0.3054991945254457,5
0.8098936261632449,-0.4806063127955557,0.8133109665096504,-0.0540155382881078,-0.1660062932385068,-0.2703292244603038,5
0.7843942541366994,-0.5116535555195435,0.8535645771610151,0.0129338753785588,-0.247644033019386,-0.2408188003138226,5
0.7314518048247066,-0.5779182858528668,0.9187790552027622,-0.0240037354223704,-0.2776224914168662,-0.2351592676417053,5
0.7086790414878429,-0.5864619107612435,0.9576257910739028,-0.0589213163478611,-0.2770871632122247,-0.2258614658584473,5
0.6971953948310657,-0.5397852115615118,0.991727744549098,-0.1206763870651728,-0.2658452402168147,-0.2016063163732707,5
0.7016711788029588,-0.509779249795388,1.0047352162888767,-0.1604997413224027,-0.2599566168094989,-0.1910957538041181,5
0.7287267906430304,-0.4476830573294487,1.0098327973758707,-0.170022718368265,-0.2618302699111639,-0.1902872510290361,5
0.7400159073231168,-0.4216356702211725,1.0107126341115074,-0.1651169403085117,-0.2781578196215077,-0.1935212687526357,5
0.7283377306896489,-0.4060079207633922,1.021259154981887,-0.1590568648662382,-0.3116159376616768,-0.1923085145900128,5
0.6921344264210949,-0.4895664500870781,1.060283010195881,-0.1792571210684974,-0.3314231294730299,-0.1947340295385304,5
0.6773421756525692,-0.5197806680447747,1.104578685850407,-0.2952642964206404,-0.3798704240869005,-0.206457346270306,5
0.5985112943606493,-0.4449740198210383,1.227273430629312,-0.4158886613028641,-0.4738207651995721,-0.2076701070562007,5
0.4200252572228647,-0.203883337716221,1.454382188012154,-0.43118313944537,-0.5361866589154192,-0.22020193318633,5
0.3312685635956994,-0.2105509498824789,1.6215497277884383,-0.4317602928646442,-0.5613471503148665,-0.2893290860376324,0
0.1642645786066864,-0.4728957126534701,1.979614479299362,-0.4955353840013662,-0.2283721694126743,-0.3006481646284104,0
-0.0815670986582351,-0.7014841951920632,2.1601422895064744,-0.5333387225671999,0.0810483090894147,-0.2869035710891147,0
-0.2324155285338814,-0.4716461755040331,2.1787743803778343,-0.5411302488112678,0.8219443730333008,-0.2723504880212805,0
-0.236502252552393,-0.2190945747908557,2.257347688855752,-0.2063831852059484,1.7362872182084317,-0.3131799907585396,0
-0.3970819647865941,0.2605877151199048,2.2529542651561987,0.2080106152819155,2.311766647647109,-0.3253075588778563,0
-0.8470951757005422,0.1997427668213661,1.796451478869312,1.1698313158260727,3.483067491519233,-0.2808397870294564,0
-0.7270016162381029,-0.1661667758080118,1.3888163512740153,1.183971567506271,4.183278572441589,0.0308388209339816,0
0.1054830409779595,-0.2945259915893106,0.771650481078062,0.8160382650329293,4.180601927032961,0.1905185031624327,0
0.1712724412915706,0.1697350980372787,-0.1297516145468422,0.2005076633834776,3.708441240163297,0.1816249527667157,0
0.1730232110817873,0.2885111149703002,-0.6674657795238989,0.0847890623769646,3.1790002906781387,0.0013283835409571,0
0.2144820137370031,0.3512320760109579,-1.5551576860162406,0.1554899709049071,2.919097780740883,-0.1235856065029797,0
0.2401759157402393,0.3001785827522694,-2.002870744914706,0.3318093452462116,2.302933710343425,-0.3224777925417976,0
0.2356985372603406,-0.017803016509976,-2.7197029653293363,0.28650305478194,1.4070595303533098,-0.3746263407534764,0
0.1099604194578582,-0.2076336561824956,-2.901284851625624,0.1800188328355885,0.8778863151371906,-0.3738178379783944,0
0.0574070300992468,-0.2253456745739679,-2.6492152268523994,0.0599716166446248,-0.1397751322735168,-0.4255621612956189,0
0.1773060595849953,-0.2155525125161541,-2.521949939031088,0.0787289869346912,-1.04769403460753,-0.5925183883696229,0
0.5870276477038722,-0.1840870503910569,-2.176541300563552,0.1520270693013181,-1.4912145221954394,-0.7020708190637303,0
0.9856546491193532,-0.2022155811656747,-2.0097251194836585,0.4267505129911202,-2.4218851188102284,-0.9607923164309624,0
0.9381622281707128,-0.1742938883332431,-1.8126762505728504,0.7496659953295085,-3.552233249777203,-1.1912162497866834,0
-0.0885749613431193,-0.3674583340888916,-0.9494167334316465,1.0541127100915455,-4.0642759887573146,-1.2077905964154942,0
-0.7801385955267865,-0.5218649369784668,-0.521039922791982,1.6566574141794894,-4.640023213860908,-0.9818134415692676,0
-1.438223939623576,-0.8027564499251852,0.2186450128346806,1.450903522776119,-4.519306396734866,-0.7061133395624118,0
-0.9588191626412615,-2.1130258844750585,0.8894233241181689,0.6783880232145613,-4.303300646088514,-0.6329436529658845,0
-0.6425261766061398,-1.7189863928216762,1.2016098458461462,-0.6072139441690586,-3.705605175094774,0.0150729638337093,0
-0.5638914197989164,-0.8523487358069365,1.3074292932356495,-0.9696642111470608,-2.928574295077053,0.4104317944697407,0
-0.4618987152167513,0.744855055281195,1.95535776929642,-0.8822259622044909,-2.5075378508238577,0.3170495384961636,0
-0.484671478553615,1.416450546780203,2.8906861390483245,-0.2793926648588603,-1.5179809982088113,-0.2420315610997172,0
-0.5580523314821824,1.2055740826330823,2.969259447526241,0.4463736157741051,-0.2671835651138383,-0.6466882332586368,0
-0.4772745559153492,0.3695688629771487,2.5646123088449317,0.622404453593893,0.3024070874278276,-0.6766029154159307,0
-0.1426861850232623,0.0078278582151546,1.9326821734272408,0.5355433202464838,1.2009577768785542,-0.6871134779850833,0
-0.009745674559205,0.0111616642982834,1.5600259560534615,0.3049718601824047,1.8203339612227167,-0.8625589775741764,0
0.1621247488630881,-0.1305344828334946,0.885732617811399,0.2587998324972005,2.024026864953762,-1.0072813452170672,0
0.2868902167821167,-0.4747717253955892,0.5601872656472512,0.1855017595866019,2.268672617537973,-1.2829814472239232,0
0.3363279374976647,-0.6452242971440539,0.4666711326100859,-0.0998989774436395,2.341477437556849,-1.5429157583632234,0
0.3953055996110879,-0.6689791591270656,0.3534688326123854,-0.2410121776017665,2.3072163447513967,-1.6916806465047958,0
0.498854544006779,-0.6787723211848794,0.2288401750086686,-0.4738922560709569,2.1351077524691595,-2.0255932463647808,0
0.5494610390904772,-0.844223330299669,0.1272384719705228,-0.6089453949708532,1.852453736824183,-2.230144971698988,0
0.6086332311805912,-0.9048600224066348,-0.0861586562850994,-0.5520961023132946,1.642069212993439,-2.2139748764577174,0
0.8423976718586632,-1.14970272999569,-0.0873898517171276,-0.3122902253649407,1.1195876836583163,-1.972231930743936,0
0.9284293513041524,-1.3347400632261075,-0.0826436293265253,-0.0684442981217377,0.6043329666795162,-1.3650446908394391,0
0.8085303218184041,-1.4489310299085991,-0.0643614571568993,-0.0064006530587959,0.3811005001560793,-1.0169834050111377,5
0.6347145986292033,-1.4520565798001557,-0.000905212591768,0.0478514610320637,0.0781039951930469,-0.5258167372202948,5
0.4426034905830376,-1.3999618055836027,0.1082550224027708,-0.0231380076574661,-0.041006837319072,-0.3536052156151711,5
0.489317791624915,-1.236595065402505,0.1847187387076809,-0.0895102726328728,-0.079818228634816,-0.318435272043116,5
0.5440126052351303,-1.1565785983535206,0.2636448458766475,-0.1408766338114036,-0.1555673625500589,-0.2420315610997172,5
0.6245942563172671,-0.9844599770724732,0.3854611939145735,-0.1229849865582274,-0.1989290436052555,-0.1733086530126842,5
0.6413334013607059,-0.8858984668657254,0.4621005895676794,-0.1059590576139271,-0.2045500029102505,-0.1571385577714142,5
0.6277083304523248,-0.867561679899535,0.4993662113050574,-0.0644042430988745,-0.1917020953009161,-0.1571385577714142,5
0.615444969380779,-0.8879810287814537,0.5626482165166502,-0.0531498152512177,-0.1761775510537941,-0.1676491203405669,5
0.6210895277208222,-0.8677699360911078,0.5809289486916188,-0.0514183644494232,-0.1285332136635267,-0.1846277183569188,5
0.6327692988622957,-0.8690194732405446,0.5663389228234202,-0.0571898655460667,-0.0720559477404153,-0.1935212687526357,5
0.6643006946742603,-0.869852498006836,0.5695025910856026,-0.0416068130579308,-0.0543900687476281,-0.1866489819178954,5
0.6454201253792174,-0.8777713543404946,0.5730190580388341,-0.0280437857172194,-0.0303002425283034,-0.1708831380641665,5
0.6596287862176708,-0.8548495171237739,0.5663389228234202,-0.0491097649563687,-0.0021954416179081,-0.1749256585628482,5
0.7022563632410368,-0.8329706678828817,0.5491122667376266,-0.0476668885002043,0.0077081564804783,-0.1712873894517075,5
0.6962211504396064,-0.8402630486238579,0.508858656086262,-0.049686918375643,0.007975820582799,-0.1413727139176853,5
0.6901875321461817,-0.8098405744745886,0.5062220258686672,-0.0537269639424778,-0.0091547258199267,-0.1223728523403567,5
0.691939896444404,-0.7535789694086157,0.5132535197804727,-0.0450697146615197,-0.0142403569202804,-0.1223728523403567,5
0.6831812639693031,-0.7335744258918788,0.5144832752178436,-0.0433382638597253,-0.0201289803275962,-0.1227771037278977,5
0.6769531156991877,-0.7198226891762175,0.5264366708684474,-0.0190979573626171,-0.0220026334292612,-0.137734438183273,5
0.6763679312611098,-0.7283663140845944,0.5137805578250603,-0.006977801750056,-0.0158463459196247,-0.1535002820370019,5
0.6890203522860371,-0.780875893666329,0.4717687136970799,-0.0231380076574661,-0.0035337665149317,-0.1680533717281079,5
0.7016711788029588,-0.7719157563748065,0.4626290676069243,-0.058055593310971,-0.0220026334292612,-0.1223728523403567,5
0.687073458011124,-0.7214887387088,0.447687683042334,-0.0644042430988745,-0.0391331798319871,-0.0960964459174751,5
0.6716976173125259,-0.721696994900373,0.4425886619606826,-0.0681557237761076,-0.0584050434386987,-0.0924581701830628,5
0.6547639422923963,-0.7408685136508186,0.432042141090303,-0.0840273458818594,-0.0452894717270435,-0.12035158877938,5
0.6678038287626996,-0.7664976813579856,0.4221983376127066,-0.0987446753331051,-0.0361888659356192,-0.119947337391839,5
0.682012489601153,-0.7579557634675724,0.4232538536965389,-0.1264478787057879,-0.0402038406266899,-0.0795220860421208,5
0.6944703806493895,-0.6933587896847956,0.4367883634809053,-0.1348165583691301,-0.0554607295423309,-0.0528414414782416,5
0.6822070195778437,-0.6260527783936083,0.443644178044515,-0.1405880594657736,-0.0950751131650371,-0.0241395201068424,5
0.6598233161943615,-0.6216776913526153,0.44628080826211,-0.1250050022496235,-0.122644585870791,-0.0451606452451477,5
0.6643006946742603,-0.646473834293491,0.4490931178279007,-0.1278907551619524,-0.1261242279718003,-0.0629477394133099,5
0.7096516913712967,-0.6298030968598828,0.4666711326100859,-0.1677141188752105,-0.1330835121738189,-0.0641604935759329,5
0.731062744871325,-0.5954220480527662,0.4838977886958795,-0.2023431349110994,-0.1603853295480918,-0.0184799874347251,5
0.7579238267347058,-0.4937332809364984,0.5139562371732561,-0.208403210353373,-0.180460172305506,0.00860492838651,5
0.7339822890296921,-0.4037153956381274,0.5085072973898704,-0.2011888375285793,-0.2155242618033399,0.0267963004353,5
0.7123767055529729,-0.3949635145381777,0.5065733845650587,-0.1668483911103062,-0.2313164833090422,-0.04273513029663,5
0.6806507797643176,-0.4270537452379932,0.5317099313036372,-0.1584797161749781,-0.2331901364107072,-0.0952879365191215,5
0.6864898680810516,-0.4791468124365822,0.5672173195643995,-0.1731970456262239,-0.2318518115136837,-0.1644150959936955,5
0.667414768809318,-0.5135295682616625,0.5761827263010165,-0.2231205256205761,-0.2524620000174189,-0.1526917792619199,5
0.6203114078140591,-0.5370761740531014,0.5956946539080133,-0.2488037085738486,-0.2701278746247862,-0.137734438183273,5
0.6064918069289872,-0.5531204358940273,0.6094048430405755,-0.2739097381078469,-0.3041213208695968,-0.1183303252184034,5
0.5903362518156205,-0.5620805731855499,0.6141510654311778,-0.2750640402183812,-0.337847085470407,-0.0985219608659928,5
0.5665908385953032,-0.5620805731855499,0.6375293786931404,-0.2713125642691623,-0.3549776318731329,-0.0908411646328988,5
0.5786580751821526,-0.5385356744120748,0.7009870632529293,-0.2577495322004368,-0.3943243206955792,-0.0775008224811442,5
0.5607517502785693,-0.5424942490699223,0.7241896971666959,-0.2632324589514502,-0.4194848120950266,-0.0641604935759329,5
0.4780286749448286,-0.5850024104022702,0.7245410558630876,-0.2788155161676002,-0.4146668450969937,-0.0673945179228042,5
0.453892607263124,-0.6079242476189904,0.7208503495563177,-0.3099816258718861,-0.3849560551872541,-0.0783093318794978,5
0.4616785898547713,-0.6020896602190239,0.7698922476014461,-0.3111359232544063,-0.3806734163938627,-0.0645647449634739,5
0.435984687851535,-0.5687498923697714,0.8474114799901887,-0.2883384932134626,-0.4063692359979515,0.0005198807658751,5
0.4073728361979374,-0.5656243424782152,0.8723723473805711,-0.3016129462085439,-0.4368830226000732,0.0623705152647112,5
0.3700023520692388,-0.5160303495785002,0.8966304973781704,-0.3200817516090086,-0.4443776350067333,0.0837958652974707,5
0.3884922669028945,-0.4168423637790701,0.9432128845485572,-0.3460535278199679,-0.4489279379024455,0.1306891454711166,5
0.4042587620628797,-0.344953009255317,0.9854004080247332,-0.3160417013141596,-0.4673968092021949,0.1913270125607863,5
0.4171057130644978,-0.2630622364821772,1.0529001575876835,-0.286029893720408,-0.4786387278121851,0.2131566404741736,5
0.4184674229013331,-0.2618109923147765,1.0801462964992692,-0.2652524840988747,-0.5040668833139532,0.2370075584416242,5
0.4221650869664631,-0.2613944799316308,1.0954390397602514,-0.2932442712732159,-0.564559128313555,0.2944114011844227,5
0.3666921534494847,-0.2213853928981569,1.1492271601959825,-0.3036329713559684,-0.6130064843233041,0.3372621608593869,5
0.2074757455601246,-0.1832540256247657,1.204773514108329,-0.2825669921168192,-0.6997298771316363,0.3756660890386832,5
0.147914493516629,-0.1749186569079615,1.2123320460647218,-0.258326685619711,-0.7254256309544269,0.3029007068158704,5
0.0788164890912695,-0.1803367319247824,1.201785525194342,-0.2534209075599578,-0.7192693390593705,0.2418585883386595,5
0.0570179701458654,-0.2101344374993332,1.1898321295437384,-0.2551523583617522,-0.7029418551303249,0.1302848940835755,5
0.0437819591908657,-0.2376396179486194,1.1963365854109564,-0.3206589003002687,-0.7104364017556868,0.0902639073679417,5
-1.2797692644691892e-05,-0.1940884686404436,1.2177824258427647,-0.3578851043588847,-0.7267639558514505,0.1027957268747993,5
-0.0837085229098391,-0.0580186527170591,1.2081143017133644,-0.374622458957555,-0.75647474576119,0.1209870856770459,5
-0.128670459653494,-0.0032165480100599,1.209519736498931,-0.3272961291618165,-0.7637016940655295,0.0607535030912756,5
-0.192903620153579,0.0522120322896216,1.2367658754105166,-0.2906470927065171,-0.7358645572574549,0.009009179774051,5
-0.2370874369904709,0.0113699204898563,1.2706921495375163,-0.2251405507680006,-0.6229100824216905,-0.0706285356464039,5
-0.2693969527091985,-0.0198855784257042,1.2807116323633083,-0.1815657300175803,-0.5064758690056795,-0.0811390982155565,5
-0.3258441306176363,-0.0453081969592621,1.2960043756242905,-0.1717541691700595,-0.4269794245016868,-0.0779050804919569,5
-0.3445285754279827,-0.0303052160762002,1.3102430427960976,-0.1786799676492231,-0.3937889924909378,-0.0831603617765332,5
-0.3478387740477369,-0.0090511354100263,1.305672499753691,-0.1948401830126616,-0.3110806050716154,-0.121564342942003,5
-0.3528981479497022,0.0172045078898227,1.276492448017294,-0.2055174621690583,-0.2637039230128289,-0.1462237438147206,5
-0.3639927346530978,0.0209548263560973,1.2856335341021068,-0.2361064042700274,-0.2034793465009676,-0.1648193473812365,5
-0.3715841872680542,0.0407511136812615,1.2981139677972982,-0.24678367869841,-0.1957170656065669,-0.1454152344163669,5
-0.3820951840413776,0.0938871688556782,1.2896755991052684,-0.2401464545648764,-0.1941110766072226,-0.137734438183273,5
-0.3953311949963773,0.1399373924627278,1.2713948669303,-0.2069603386252227,-0.1860811316105011,-0.131670647500343,5
-0.4025319931499466,0.1620262049131568,1.278602040190301,-0.1518424873134304,-0.1761775510537941,-0.138947192345896,5
-0.4037007675180967,0.1653600109962858,1.287566006932261,-0.1247164279039935,-0.1657386247507662,-0.1490535101507793,5
-0.4001976334296575,0.1434811617553933,1.2808873117115045,-0.0782558447852159,-0.1387044758642339,-0.1632023418310725,5
-0.4075929615599175,0.1222253740712556,1.2692852747572922,-0.0479554675738485,-0.1089936815690744,-0.1684576231156488,5
-0.4161570640583277,0.0897186309882944,1.2466096788881131,-0.0404525109473965,-0.0934691241656928,-0.1749256585628482,5
-0.3998069789682703,0.0609639133895713,1.2346562832375094,-0.0476668885002043,-0.0664349840500003,-0.1878617360805184,5
-0.396303844879831,0.0501277633559296,1.227624789325704,-0.0710414719604223,-0.0543900687476281,-0.1834149641942958,5
-0.3990288590615073,0.0617969381558626,1.2075858236741197,-0.0811415976975447,-0.052516415645963,-0.1785639342972605,5
-0.3968874348099034,0.0790924441641893,1.1759462610629805,-0.0912417234346672,-0.0485014453403122,-0.1777554248989068,5
-0.3968874348099034,0.0820097378641724,1.1643442241087685,-0.0897988469785028,-0.0493044376472744,-0.1797766884598835,5
-0.3980562091780535,0.0926359246882776,1.16627813693358,-0.0843159202274894,-0.0546577372353687,-0.1781596762864478,5
-0.4070093716298452,0.0947201936219695,1.1646955828051602,-0.0701757489235321,-0.0640260027436938,-0.1757341679612018,5
-0.41304298992327,0.090969875155695,1.1578412082362075,-0.0632499409883401,-0.0608140247450052,-0.1749256585628482,5
-0.4159625340816369,0.0724248319979315,1.141668628239589,-0.0626727922970801,-0.0549254013376894,-0.1777554248989068,5
-0.4149898841981832,0.0570036317137603,1.1251461295412362,-0.0716186206516824,-0.0447541435224021,-0.1822022034084011,5
-0.41304298992327,0.061380425772717,1.1175861575901858,-0.0846044993011336,-0.0498397702373358,-0.1725001436143305,5
-0.4033117075647153,0.0759668942726332,1.0964931158494264,-0.0900874213241329,-0.0578697108486374,-0.1648193473812365,5
-0.3910483464931694,0.0997217562556447,1.0708295310662606,-0.0987446753331051,-0.0806212253271981,-0.1498620129258613,5
-0.3852092581764355,0.1107661624808592,1.0590518147638526,-0.1013418538998039,-0.1073876925697301,-0.138542940958355,5
-0.3867670924979671,0.1136834561808425,1.0386614904158766,-0.1027847256279541,-0.1218415935638288,-0.130862144725261,5
-0.410901565671666,0.0999300124472175,1.0170399706358724,-0.1071133597244615,-0.1571733515494032,-0.1062027570990868,5
-0.4190766082166947,0.0976374873219528,1.001922906723086,-0.1074019340700915,-0.2008026967069205,-0.0819476009906385,5
-0.4233594567199025,0.0899285941978309,0.9579785897649516,-0.1108648356736804,-0.2251601914139858,-0.0722455411965679,5
-0.4344540434232983,0.0938871688556782,0.9477834275909636,-0.1229849865582274,-0.2776224914168662,-0.0641604935759329,5
-0.4521658383501909,0.0876360690725661,0.9671182358551071,-0.1495338878203759,-0.3258021701680348,-0.0726497992073805,5
-0.5204857228687874,-0.0261383852267801,1.0590518147638526,-0.2413007519473965,-0.3691638292961319,-0.0374798490120537,0
-0.6497285692677146,-0.2907756731230361,1.4225655060581617,-0.3140216761667351,-0.3705021541931554,0.0437748984516519,0
-0.7908441222768007,-0.2920252102724731,1.7351033864825305,-0.3414363288338588,-0.1807278364078268,0.3433258985561433,0
-1.2593472480244043,-0.0023835232437685,2.3264299925471223,-0.0724843484165867,0.369055584853707,0.5381755640962796,0
-1.5949098633079504,0.0338752453234309,3.0538101738267898,0.0876748152892935,0.7772443539248212,0.5135161632235621,0
-1.73699806620049,-0.0361398034761668,3.239434125126239,0.4048188059870666,1.978256189436,0.3760703404262242,0
-2.1410750959793243,-0.299319298031413,2.95396670426526,0.2564912282761318,3.2531434355940374,0.5304947678631856,0
-1.7004057019785552,-0.101569802025235,2.2453957331998056,0.0328455525071737,3.653302294751789,0.6590470866277084,0
-0.502579397965204,0.3745704256108239,1.6020378001814417,-0.2234090999662062,3.771074802366885,0.5903241255545018,0
-0.164095644015285,0.5106402415342083,1.1828020756265902,-0.1281793295075824,3.3596740245991423,0.1606038276284105,0
0.1095713595044767,0.5198086350173037,0.3817690476131462,-0.0237151610767404,3.120917031370263,-0.0855858767250508,0
0.2209062864918149,0.2362080845621748,-0.367408332794721,0.2391767249862014,2.688371004404757,-0.4813489719951667,0
0.3036293618255556,0.1607749607457562,-0.7268785190912112,0.2859259060906799,2.285267831350638,-0.6268798689062263,0
0.4955459398950305,0.0870113004978477,-1.2327760021142755,0.2596655555340906,2.055343648248266,-0.6208160782232962,0
0.8684806338152812,0.0611721695811442,-1.6325012390567877,0.1707844301353561,1.4651427896611855,-0.462753361805379,0
1.0613698617682097,0.0269976699476365,-1.8028324470952544,0.0631459439025836,0.62815513318194,-0.206457346270306,0
1.2754772077524816,0.0082443705983002,-1.9483784670915347,0.0238997241525714,0.1278896366310404,-0.1146920561072627,0
1.2953304269309782,0.0790924441641893,-1.8722646694883591,0.046120005502255,-0.9232299068927368,-0.1522875278743789,0
1.2408301432974538,-0.0142609542352743,-1.5233410040622484,0.1390411906518668,-1.440358211191903,-0.2881163318750094,0
0.7474128299613825,0.0192887768235147,-1.0687721306001734,0.3964501263237245,-2.459358189614369,-0.7036878246138942,0
0.1800310737666715,0.0861765687135927,-0.7648468582213724,0.9626344061261124,-3.393240365154637,-1.1887907348381657,0
-1.169812434490476,-0.4087169582718026,-0.0012565712881596,1.4269517906246407,-3.739330935310164,-1.3593851581673215,0
-1.4730639395472889,-1.5495768090490394,0.5779409597776323,2.1977356975439784,-3.9044801118277865,-1.1435144602146838,0
-1.2217806394110096,-2.129903171082276,0.6234678308641867,1.8266281387328904,-3.3921697087453544,-0.4182856164500659,0
-1.0417367679516931,-2.605626886335189,0.7273533654288784,0.9583057814856332,-3.1344085160120843,-0.0795220860421208,0
-1.220418929574174,-0.5789595668107309,1.1896564501955424,-0.6672375971806752,-2.757269098560407,0.1816249527667157,0
-1.1663077058940312,0.2912184454607469,1.467038301055541,-0.5924966147178129,-2.3841443839037675,-0.2230316995223887,0
-1.0392062837467078,0.4406251927346106,1.7885415882165272,-0.3062301499226672,-2.2101621385198653,-0.3960517239025943,0
-1.0493282205666496,0.2589216655873222,2.150474165377074,-0.0802758699326404,-1.7088259943305224,-0.569475999670341,0
-1.1063589884051597,0.2547531277199383,2.638440834926904,0.0795947146995955,-0.6494088987181615,-0.690751747096224,0
-1.0868948291800444,0.3720696442939863,2.277915132546581,0.1159551720812505,-0.0736619367397596,-0.7679639144518029,0
