timestamp,ax,ay,az,gx,gy,gz
0,0.239014,-0.427612,1.223389,110.473625,81.603996,-46.752926
17,0.241455,-0.47168,1.217773,114.19677,78.430176,-30.700682
33,0.258301,-0.466797,1.205078,108.64257,75.012207,-19.897461
49,0.266602,-0.417603,1.141968,111.877434,64.331055,-2.502441
66,0.266235,-0.407959,1.097534,123.535149,48.095699,8.789063
82,0.269775,-0.35437,1.008423,120.788567,36.92627,11.840819
98,0.298828,-0.332153,0.961304,107.177727,16.296387,11.779784
114,0.337891,-0.391357,0.909668,100.158684,7.690429,11.291503
131,0.311646,-0.385254,0.889648,95.825188,-5.004883,14.526366
150,0.313232,-0.345947,0.882202,120.300285,-7.995605,20.874022
168,0.373901,-0.341797,0.849731,147.583008,3.417969,17.028809
186,0.470703,-0.414551,0.755493,125.732414,10.803222,7.385253
205,0.539185,-0.452271,0.65271,105.224602,7.751464,6.225585
222,0.590698,-0.413086,0.594849,76.782227,-8.422852,15.014647
241,0.602661,-0.381714,0.588867,76.293945,-26.855467,29.602049
259,0.589478,-0.372559,0.579224,99.304192,-35.522461,39.18457
277,0.592773,-0.359619,0.524536,124.816887,-30.822752,42.175289
297,0.643066,-0.389038,0.471191,134.460449,-19.470215,43.090816
315,0.661865,-0.458496,0.435669,130.493164,-15.075683,43.273922
334,0.671753,-0.454224,0.415405,107.116692,-13.122558,45.349117
353,0.66748,-0.468262,0.412476,77.270508,-15.441894,50.048824
371,0.648682,-0.467651,0.440063,55.175777,-16.967773,48.156734
390,0.658325,-0.456665,0.45105,46.081539,-12.512206,42.358395
407,0.685425,-0.440552,0.456177,31.738279,-6.408691,41.992184
426,0.708496,-0.389648,0.4646,26.000975,-4.821777,41.687008
445,0.713135,-0.379639,0.473633,19.775391,-6.896972,36.560059
463,0.693481,-0.402222,0.506958,17.883301,-16.235352,26.367186
481,0.682129,-0.414795,0.532227,9.277344,-26.245115,13.305663
498,0.657593,-0.447144,0.574463,-5.065917,-25.329588,-5.371093
517,0.641602,-0.475952,0.575439,-12.08496,-19.775391,-13.793944
535,0.632324,-0.482422,0.565186,-26.733397,-7.8125,-21.301268
553,0.63623,-0.468018,0.573608,-32.592773,-4.272461,-20.690916
570,0.639771,-0.476562,0.583374,-18.676758,-10.620116,-17.63916
588,0.641235,-0.511597,0.611694,-9.70459,-15.86914,-15.563964
606,0.623047,-0.528809,0.638306,4.02832,-24.536131,-9.887695
623,0.592896,-0.55249,0.651611,11.840819,-26.06201,-3.662109
641,0.580322,-0.560791,0.650879,6.652832,-21.362303,0.061035
658,0.56958,-0.559937,0.635498,-1.586914,-17.51709,1.098633
676,0.567261,-0.542358,0.62439,-20.690916,-11.779784,1.770019
693,0.551514,-0.552734,0.626221,-32.592773,-12.20703,0.12207
711,0.544678,-0.558228,0.630737,-34.667969,-14.831542,-2.624511
729,0.540771,-0.55957,0.652344,-34.118652,-14.953612,-3.112793
747,0.540039,-0.562378,0.661133,-30.639647,-13.916015,-1.220703
764,0.546021,-0.557373,0.668945,-21.972654,-15.563964,0.183105
782,0.549316,-0.556885,0.675903,-17.272949,-19.958496,0.12207
799,0.538696,-0.553589,0.678345,-17.51709,-22.15576,0.244141
817,0.51355,-0.539795,0.665771,-21.850584,-25.085447,-1.037598
835,0.494141,-0.508545,0.668091,-20.751951,-23.437498,-6.286621
853,0.491699,-0.504883,0.678101,-9.82666,-15.136718,-13.488769
871,0.495605,-0.523804,0.707153,0.793457,-2.929687,-14.465331
887,0.488037,-0.546143,0.715576,2.990722,2.502441,-12.20703
904,0.481689,-0.559326,0.713013,5.493164,7.93457,-7.751464
922,0.487427,-0.568726,0.703247,7.507324,8.972168,-6.591796
940,0.499878,-0.574951,0.698364,7.385253,8.483887,-5.92041
957,0.502075,-0.574219,0.696655,6.103515,6.652832,-3.601074
974,0.501831,-0.57251,0.693726,3.173828,6.774902,-1.342773
992,0.500977,-0.56543,0.686768,0.854492,8.239746,0.183105
1009,0.507935,-0.550537,0.674194,0.305176,8.911133,0.915527
1026,0.514038,-0.540771,0.659302,0.244141,8.605957,1.586914
1044,0.514038,-0.540527,0.655273,1.708984,5.981445,1.770019
1061,0.513306,-0.540405,0.652832,2.807617,4.577637,2.13623
1078,0.509155,-0.545654,0.652588,3.662109,1.831055,2.502441
1096,0.50769,-0.550537,0.651367,1.342773,-1.403808,2.075195
1113,0.505371,-0.552612,0.655151,-3.234863,-5.981445,3.173828
1131,0.496094,-0.550659,0.662109,-4.882812,-9.033203,4.150391
1149,0.503296,-0.532227,0.675781,-2.441406,-14.709472,7.507324
1166,0.492432,-0.524658,0.686157,-4.02832,-15.686034,9.82666
1185,0.484497,-0.523804,0.693359,-2.319336,-12.145995,10.0708
1203,0.483154,-0.522705,0.704468,0.610352,-7.629394,8.239746
1221,0.487427,-0.52417,0.710083,1.037598,-6.04248,7.385253
1239,0.485229,-0.517578,0.715332,1.098633,-3.601074,7.629394
1257,0.485352,-0.507935,0.709106,2.075195,-1.159668,8.361816
1276,0.484375,-0.509766,0.703247,4.333496,1.342773,5.92041
1293,0.489502,-0.519775,0.698608,5.310058,3.967285,3.540039
1311,0.492554,-0.526978,0.692627,3.662109,4.699707,3.112793
1328,0.496094,-0.518555,0.694458,-0.488281,3.479004,2.868652
1346,0.496826,-0.514648,0.697388,-2.563476,0.549316,2.685547
1364,0.49646,-0.511108,0.703857,-3.601074,-2.319336,1.342773
1382,0.496094,-0.511597,0.703491,-3.662109,-3.479004,0.976562
1399,0.494141,-0.508545,0.70459,-2.197266,-4.150391,1.220703
1418,0.494019,-0.507202,0.705933,0.671387,-2.990722,1.403808
1436,0.493408,-0.51062,0.709717,2.624511,-2.075195,0.305176
1453,0.493896,-0.521851,0.713623,2.624511,-1.647949,-0.427246
1472,0.491577,-0.532715,0.717651,0.549316,-0.427246,-1.525879
1491,0.498901,-0.52832,0.723389,-1.708984,1.525879,-0.976562
1508,0.503174,-0.525513,0.723877,-1.159668,3.90625,-0.366211
1526,0.506104,-0.529053,0.718506,0.793457,5.249023,-1.586914
1543,0.509155,-0.529175,0.712769,1.708984,5.249023,-1.831055
1561,0.513916,-0.532104,0.712891,2.929687,4.150391,-0.854492
1579,0.51416,-0.536499,0.713623,3.356933,3.601074,0.183105
1596,0.512939,-0.539429,0.709473,2.075195,5.371093,1.220703
1614,0.511963,-0.528198,0.696045,1.098633,6.591796,1.770019
1631,0.517456,-0.512329,0.680298,0.793457,7.995605,2.075195
1649,0.517822,-0.505127,0.676147,1.831055,7.690429,1.525879
1667,0.515259,-0.497314,0.675781,2.13623,6.04248,0.854492
1685,0.509888,-0.494751,0.671875,1.831055,5.065917,0.244141
1703,0.503418,-0.500977,0.668823,1.464844,2.685547,-1.647949
1721,0.502441,-0.504028,0.662476,2.197266,0.854492,-3.112793
1739,0.505615,-0.499878,0.660278,3.540039,-0.854492,-3.295898
1757,0.510498,-0.496338,0.664917,4.577637,-2.319336,-3.417969
1775,0.508667,-0.494629,0.670166,6.04248,-2.197266,-3.967285
1793,0.503906,-0.505737,0.665161,7.629394,-0.427246,-5.615234
1811,0.505005,-0.536499,0.668823,5.615234,0.488281,-7.751464
1828,0.503418,-0.550781,0.674072,0.671387,-1.403808,-9.216309
1846,0.501099,-0.567993,0.68811,-1.708984,-2.746582,-9.216309
1864,0.504517,-0.564209,0.697266,-3.784179,-3.967285,-7.141113
1881,0.505005,-0.55957,0.699707,-0.488281,-3.173828,-4.333496
1898,0.506226,-0.557007,0.701294,3.356933,-1.037598,-3.356933
1914,0.508057,-0.567627,0.699463,5.065917,0.244141,-3.112793
1931,0.511841,-0.569946,0.697266,5.432128,1.098633,-2.197266
1948,0.517212,-0.567627,0.696289,3.295898,-0.976562,-0.915527
1965,0.516602,-0.564697,0.700073,2.380371,-2.197266,-0.244141
1983,0.509033,-0.552856,0.69751,1.098633,-2.746582,1.403808
2000,0.505005,-0.547363,0.697021,1.220703,-1.953125,2.380371
2016,0.500977,-0.546875,0.699463,1.89209,-1.708984,2.13623
2032,0.499756,-0.549805,0.700806,2.258301,-1.464844,1.586914
2048,0.496216,-0.547119,0.698975,0.854492,-1.403808,1.831055
2065,0.493164,-0.533447,0.694824,0.427246,-1.281738,1.831055
2081,0.493286,-0.530884,0.692871,1.098633,-0.732422,0.854492
2097,0.497192,-0.535156,0.688354,1.281738,-0.366211,0.244141
2114,0.499878,-0.534302,0.684937,0.244141,-0.244141,0.0
2130,0.500854,-0.533813,0.684937,-0.244141,-1.953125,0.549316
2146,0.50293,-0.532837,0.686523,0.061035,-3.051758,0.549316
2163,0.500488,-0.53418,0.688477,-0.976562,-4.638672,0.183105
2179,0.49231,-0.538696,0.693726,-0.549316,-4.638672,0.12207
2196,0.494507,-0.538208,0.691772,0.488281,-3.967285,0.183105
2212,0.496704,-0.538574,0.691162,1.159668,-2.441406,-0.061035
2229,0.495972,-0.536133,0.693848,1.220703,-1.953125,-0.061035
2245,0.493164,-0.542114,0.702515,0.976562,-2.807617,0.0
2261,0.494629,-0.546265,0.705811,-0.183105,-4.089355,-0.244141
2278,0.494385,-0.551758,0.703003,-1.220703,-4.089355,-0.305176
2294,0.500244,-0.547485,0.696289,-2.624511,-3.112793,-0.732422
2311,0.502075,-0.548706,0.692383,-3.234863,-2.441406,-1.037598
2327,0.502075,-0.551392,0.689087,-3.112793,-2.502441,-0.610352
2344,0.500977,-0.550293,0.689575,-1.342773,-2.746582,0.976562
2360,0.503906,-0.54187,0.689941,1.281738,-2.990722,2.319336
2377,0.506714,-0.542358,0.689819,1.770019,-3.173828,2.563476
2393,0.508423,-0.543701,0.690063,1.953125,-3.90625,2.929687
2410,0.515869,-0.543213,0.687012,1.647949,-4.577637,2.990722
2426,0.525391,-0.556152,0.68811,-0.12207,-7.324218,2.624511
2442,0.529785,-0.561279,0.691406,-2.258301,-11.596679,2.990722
2459,0.539795,-0.563843,0.691895,-4.02832,-14.648437,3.295898
2475,0.544312,-0.57019,0.698975,-10.31494,-23.193357,4.394531
2492,0.547852,-0.575806,0.724854,-16.601562,-32.592773,7.202148
2508,0.545654,-0.577148,0.758545,-19.775391,-37.658691,9.094238
2525,0.539429,-0.575684,0.776733,-26.428221,-47.790524,12.817382
2541,0.525879,-0.570923,0.81311,-29.541014,-53.344723,13.916015
2558,0.486694,-0.586792,0.899536,-38.208008,-61.706539,16.052246
2574,0.451172,-0.608765,0.962646,-46.44775,-47.546383,24.04785
2591,0.391235,-0.698242,1.187256,-46.020504,-23.742674,32.958984
2607,0.300415,-0.795166,1.461792,-12.20703,99.243156,63.659664
2624,0.235229,-0.803955,1.468018,32.104492,315.368652,103.576653
2640,0.165894,-0.704834,1.188477,35.15625,419.067352,126.15966
2656,0.211548,-0.614502,1.084473,7.8125,548.950195,172.302231
2673,0.463257,-0.420654,0.973877,-42.480465,572.631836,182.189926
2689,0.579224,-0.316284,0.578735,-68.359375,557.312012,168.762192
2706,0.542603,-0.226196,0.356934,-72.875977,519.165039,130.615234
2722,0.532959,-0.029663,0.003906,-37.29248,502.624481,113.525383
2739,0.505127,-0.044434,-0.31604,35.766602,461.547821,98.876945
2755,0.503784,-0.06897,-0.494995,29.418943,410.27829,98.937981
2772,0.52832,-0.067017,-0.820312,9.887695,375.610321,95.642082
2789,0.531982,-0.033203,-1.130127,-28.930662,271.789551,79.89502
2805,0.521362,0.00293,-1.220703,-37.963867,141.052246,36.437988
2822,0.510986,0.038696,-1.343872,-31.616209,72.387695,4.577637
2838,0.558228,0.061401,-1.377686,-6.713867,-67.993164,-66.28418
2855,0.61438,0.076538,-1.332031,29.174803,-218.017563,-143.371582
2872,0.650024,0.020996,-1.210449,63.232418,-303.100586,-182.189926
2888,0.45166,-0.03186,-1.054443,184.753403,-493.225067,-251.220688
2905,0.276367,-0.119995,-0.888062,357.60495,-682.739197,-288.146973
2921,-0.119385,-0.377197,-0.396851,454.711884,-747.253357,-284.729004
2938,-0.193237,-0.803345,-0.131348,500.183075,-784.057556,-248.596176
2955,-0.145874,-1.157349,0.131592,278.198242,-769.226013,-169.128403
2972,-0.038818,-1.562012,0.831665,149.108887,-727.661072,-103.820793
2988,-0.047729,-1.508301,0.993652,8.544922,-559.204102,25.878904
3005,-0.204224,-0.950684,1.164063,-37.475586,-394.042938,66.711426
3022,-0.246338,-0.449707,1.609985,-46.386715,-324.890106,51.269527
3038,-0.26123,-0.304443,1.791138,-25.024412,-169.311508,-0.854492
3055,-0.331421,-0.205322,1.838867,1.708984,-3.234863,-51.818844
3072,-0.281982,-0.288086,1.634399,0.915527,72.631836,-73.913574
3088,-0.211426,-0.352905,1.513794,-13.122558,215.698227,-112.915031
3105,-0.081665,-0.376831,1.130249,-15.258788,283.447266,-130.79834
3122,0.034546,-0.473999,0.719971,-21.240232,397.216766,-164.672836
3138,0.093994,-0.575806,0.560547,-40.466305,485.534637,-190.917953
3155,0.167725,-0.745483,0.331421,-48.33984,524.536133,-202.209457
3171,0.092041,-0.882812,0.252075,-69.458008,604.919434,-225.769028
3188,-0.025269,-0.938599,0.258423,-80.871574,708.984314,-242.004379
3205,-0.235596,-1.022339,-0.051758,-106.689445,750.549255,-246.582016
3222,-0.155151,-1.114746,-0.401245,-192.199692,759.582458,-260.375977
3238,-0.020874,-1.134155,-0.551758,-167.053207,654.785095,-261.962891
3255,0.363037,-1.290283,-0.799805,-128.173828,553.771973,-243.225082
3272,0.595581,-1.584351,-0.723877,-94.604485,323.547333,-151.062012
3289,0.586304,-1.683472,-0.642212,-72.509766,119.262688,-33.996582
3305,0.417969,-1.46582,-0.476807,-53.405758,41.320797,18.432617
3322,0.291382,-1.158813,-0.374634,-21.972654,-51.086422,79.589844
3339,0.278564,-1.060425,-0.317993,0.915527,-87.707512,82.763664
3355,0.333984,-0.921997,-0.190674,12.08496,-92.102043,75.012207
3371,0.44043,-0.87207,-0.116211,18.066406,-88.623039,60.363766
3388,0.485596,-0.851685,-0.071533,3.479004,-81.359856,53.833004
3405,0.532349,-0.846191,0.023437,-3.479004,-77.575684,52.429195
3421,0.540405,-0.838135,0.058594,-17.700195,-71.289062,49.560543
3438,0.538086,-0.796509,0.099609,-33.996582,-64.27002,41.687008
3454,0.531006,-0.750488,0.120361,-34.851074,-58.654781,35.339355
3471,0.532227,-0.728271,0.134888,-20.446775,-42.5415,19.65332
3487,0.548218,-0.715576,0.159058,-8.117676,-32.836914,11.047362
3504,0.57251,-0.76001,0.143677,9.216309,-13.793944,-0.732422
3520,0.574707,-0.778564,0.122803,7.385253,-2.441406,-2.13623
3536,0.573608,-0.78125,0.079712,4.394531,-1.159668,-1.464844
3553,0.575928,-0.770874,0.047119,0.732422,-5.371093,-0.244141
3569,0.577637,-0.762451,0.03479,-2.990722,-15.136718,1.525879
3586,0.577515,-0.730713,0.030518,-4.455566,-21.362303,2.380371
3602,0.575684,-0.718506,0.037231,-6.530761,-33.081055,3.234863
3618,0.57373,-0.701538,0.046875,-8.300781,-37.231445,3.295898
3635,0.560181,-0.680542,0.046997,-14.404296,-41.442867,1.770019
3651,0.550903,-0.666626,0.0448,-22.888182,-41.320797,-3.051758
3668,0.536621,-0.633301,0.026367,-27.099607,-39.794922,-6.469726
3684,0.539307,-0.589111,-0.007324,-32.409668,-35.827637,-15.686034
3701,0.540649,-0.560425,-0.020996,-25.756834,-35.03418,-29.052732
3718,0.543335,-0.533447,-0.036987,-18.493652,-35.949707,-36.437988
3735,0.526611,-0.544678,-0.039795,-6.835937,-40.039062,-48.889156
3751,0.519653,-0.549316,-0.034302,-7.202148,-48.828121,-59.387203
3768,0.504517,-0.550903,-0.004883,-9.765625,-56.884762,-65.368652
3785,0.446045,-0.598267,0.056763,-11.96289,-79.528809,-81.665031
3802,0.409424,-0.636841,0.088013,-16.601562,-103.881828,-99.914543
3819,0.315186,-0.726562,0.165771,-20.629881,-113.464348,-107.055656
3836,0.218628,-0.868652,0.254639,-30.395506,-120.483391,-113.952629
3852,0.185303,-0.927368,0.285156,-56.15234,-111.633293,-107.360832
3869,0.136353,-0.951172,0.321899,-69.335937,-105.407707,-100.83007
3886,0.099609,-0.907104,0.352905,-72.937012,-98.57177,-91.247551
3903,0.085815,-0.901489,0.367554,-52.612301,-101.074211,-90.209953
3920,0.043945,-0.973755,0.418823,-45.898434,-104.553215,-89.355461
3936,-0.000244,-1.027832,0.490112,-50.537106,-104.309074,-80.688469
3953,-0.001709,-1.006958,0.495361,-63.476559,-86.303703,-67.382812
3970,-0.008179,-0.908691,0.474121,-64.27002,-77.270508,-63.293453
3987,-0.037598,-0.832642,0.481201,-42.724606,-72.631836,-67.321777
4004,-0.071045,-0.878662,0.512085,-19.104004,-79.101562,-77.880859
4021,-0.157959,-1.074707,0.587891,-23.803709,-79.101562,-78.857422
4038,-0.179565,-1.089966,0.598633,-55.236813,-67.871094,-70.373535
4055,-0.184814,-1.050293,0.591797,-73.791504,-54.565426,-58.227535
4072,-0.166382,-0.932983,0.574219,-68.603516,-51.147457,-55.541988
4088,-0.136108,-0.84375,0.530151,-34.240723,-55.175777,-58.105465
4105,-0.144653,-0.836792,0.516724,11.230468,-74.34082,-64.819336
4122,-0.201904,-0.910645,0.521362,28.381346,-85.20507,-66.894531
4138,-0.26709,-1.036133,0.539917,35.705566,-100.036613,-65.795898
4155,-0.281616,-1.068726,0.538086,11.96289,-103.393547,-56.701656
4172,-0.284912,-1.023926,0.515137,-3.417969,-102.233879,-49.804684
4189,-0.29126,-0.913208,0.491089,-19.470215,-100.708,-37.658691
4206,-0.303589,-0.887695,0.486084,-19.897461,-100.402824,-32.043457
4222,-0.355347,-0.942627,0.490845,-22.766111,-98.937981,-30.151365
4239,-0.399048,-0.937256,0.50647,-29.541014,-94.726555,-25.085447
4257,-0.414551,-0.924805,0.517944,-33.935547,-87.829582,-23.010252
4273,-0.431274,-0.89856,0.530029,-30.700682,-78.491211,-21.057127
4290,-0.462524,-0.925415,0.536621,-27.832029,-72.875977,-19.897461
4307,-0.47583,-0.945312,0.540161,-27.282713,-59.082027,-16.418457
4324,-0.480591,-0.940063,0.540894,-30.578611,-42.907711,-10.803222
4341,-0.473511,-0.90332,0.541138,-30.944822,-35.03418,-7.8125
4358,-0.469604,-0.881714,0.538696,-25.695799,-20.935057,-1.953125
4374,-0.466553,-0.852295,0.525879,-15.502929,-9.460449,2.746582
4391,-0.453857,-0.828979,0.516846,-9.765625,-5.126953,4.394531
4408,-0.435059,-0.804199,0.503296,1.525879,0.915527,6.958007
4425,-0.427124,-0.800415,0.497925,9.765625,3.662109,8.666992
4441,-0.40979,-0.798828,0.486328,12.268065,4.272461,9.216309
4458,-0.402222,-0.797363,0.479126,13.366698,5.249023,9.399414
4474,-0.391479,-0.795654,0.468018,12.023925,5.798339,9.216309
4491,-0.389282,-0.788696,0.45813,7.324218,6.713867,8.422852
4508,-0.387207,-0.783203,0.453979,2.075195,7.202148,6.713867
4524,-0.377197,-0.771973,0.449585,0.12207,6.958007,5.737304
4541,-0.371094,-0.766846,0.447754,-1.220703,5.249023,3.540039
4557,-0.371704,-0.768555,0.448242,0.671387,2.563476,1.647949
4573,-0.370728,-0.775391,0.447998,2.319336,1.464844,1.220703
4590,-0.367676,-0.783691,0.448975,6.347656,-0.427246,1.647949
4606,-0.37085,-0.791504,0.45105,9.338379,-2.197266,2.502441
4622,-0.375122,-0.796265,0.449341,10.19287,-2.441406,2.624511
4639,-0.374512,-0.797363,0.444092,10.803222,-1.464844,2.380371
4655,-0.378662,-0.803955,0.435669,10.742187,-0.732422,2.258301
4672,-0.378906,-0.803833,0.434937,11.230468,-0.549316,2.441406
4688,-0.375244,-0.799438,0.433594,14.587401,-2.685547,2.990722
4705,-0.369141,-0.804687,0.424194,16.784668,-3.845215,3.234863
4721,-0.366577,-0.815918,0.414185,20.507811,-5.187988,3.295898
4738,-0.36792,-0.824219,0.411743,21.118162,-5.249023,2.929687
4754,-0.373901,-0.848389,0.411133,19.348145,-4.760742,2.685547
4771,-0.372192,-0.865234,0.418091,12.20703,-4.211426,2.319336
4788,-0.366089,-0.877075,0.428589,2.01416,-6.16455,2.380371
4805,-0.34436,-0.920044,0.443726,-5.310058,-8.483887,3.295898
4822,-0.346924,-0.948486,0.467529,-24.597166,-18.066406,9.460449
4838,-0.35791,-0.9552,0.493286,-45.043941,-34.301758,15.86914
4855,-0.396118,-0.965942,0.569214,-54.870602,-45.349117,17.578125
4872,-0.482178,-0.981445,0.669189,-73.242187,-68.603516,16.113281
4889,-0.511353,-1.004272,0.783203,-78.979492,-68.29834,24.230955
4905,-0.634521,-0.888916,1.07959,-54.504391,-32.470703,36.682129
4922,-0.828247,-0.602295,1.033203,92.346184,127.380363,54.748531
4939,-0.848022,-0.429321,1.107788,329.528778,326.904266,65.551758
4955,-1.054077,-0.556274,1.120117,456.481903,455.017059,62.377926
4972,-1.121704,-1.329224,0.653687,444.702118,695.190369,56.396481
4989,-0.991211,-1.299683,0.461914,156.37207,754.333435,89.904778
5005,-0.580933,-0.734375,0.034912,59.570309,724.670349,106.018059
5022,-0.451294,-0.681763,-0.1427,51.574703,619.018555,150.695801
5038,-0.392212,-0.55127,-0.328979,45.471188,526.916504,147.277832
5055,-0.34082,-0.431152,-0.522461,46.813961,492.126434,119.201653
5072,-0.244263,-0.476685,-0.74585,66.28418,397.155731,64.39209
5089,0.00769,-0.632812,-1.134277,42.724606,230.957016,26.489256
5105,0.175781,-0.845459,-1.304688,27.221678,124.084465,12.023925
5122,0.216553,-0.922729,-1.272339,9.033203,-111.572258,-8.789063
5139,0.238037,-0.946045,-0.99585,6.347656,-326.782196,-11.596679
5156,0.17041,-0.999268,-0.788574,5.371093,-427.429169,-10.253905
5172,0.042847,-0.992554,-0.70166,-7.690429,-634.399414,-12.023925
5189,-0.538696,-0.92334,-0.384644,1.586914,-817.809998,-13.488769
5206,-1.202271,-0.845093,-0.113892,48.46191,-872.375427,-12.756347
5223,-1.241699,-0.804932,-0.141479,139.465332,-854.492126,-38.635254
5240,-0.903076,-1.005859,0.148315,-49.133297,-765.075623,-59.631344
5257,-0.744019,-1.438721,0.573242,-98.266594,-706.115662,-17.456055
5275,-0.849976,-1.012695,0.892334,-102.294914,-559.997559,88.74511
5291,-0.903442,-0.668335,1.058228,-12.512206,-408.630341,99.121086
5308,-0.756592,-0.471069,1.321655,24.658201,-330.017059,68.481445
5325,-0.516968,-0.618042,1.249023,63.110348,-161.499008,23.193357
5341,-0.448608,-0.63855,1.147461,82.580559,10.0708,11.535644
5358,-0.378418,-0.576172,0.834229,90.393059,90.026848,4.821777
5375,-0.329346,-0.538086,0.530884,109.924309,218.627914,-17.333984
5392,-0.324219,-0.522095,0.4104,148.55957,317.810059,-53.100582
5408,-0.359131,-0.53479,0.192383,170.104965,362.243622,-74.09668
5425,-0.429443,-0.636353,-0.040161,197.326645,439.025848,-117.919914
5442,-0.488892,-0.681152,-0.111084,201.354965,496.398895,-166.748032
5459,-0.632935,-0.873291,-0.163818,173.278793,517.089844,-193.969711
5476,-0.849976,-1.215332,-0.087158,52.36816,548.156738,-241.821274
5493,-0.892334,-1.182007,-0.146851,-2.380371,564.39209,-253.784164
5509,-0.720337,-1.065918,-0.355103,-33.752441,538.513184,-248.291
5526,-0.522339,-1.138062,-0.419434,-28.625486,413.330048,-203.857407
5543,-0.508789,-1.227417,-0.345825,23.315428,271.484375,-118.896477
5560,-0.569214,-1.300659,-0.201294,17.51709,209.777817,-74.829102
5576,-0.634399,-1.155029,-0.134277,-26.733397,100.708,-14.709472
5593,-0.654907,-1.087402,-0.104004,-29.724119,17.944336,6.713867
5610,-0.641968,-1.017822,-0.019287,-12.817382,-10.742187,10.253905
5628,-0.585815,-0.976685,0.0896,16.906738,-47.058102,14.465331
5644,-0.552002,-0.967163,0.132202,18.859863,-58.776852,22.766111
5661,-0.500122,-0.995117,0.182983,11.96289,-60.119625,29.418943
5678,-0.506592,-0.976562,0.19043,-17.456055,-64.208984,43.395992
5695,-0.510742,-0.929199,0.206543,-41.503902,-61.279293,46.874996
5712,-0.481689,-0.833862,0.231812,-44.921871,-54.870602,42.175289
5729,-0.428955,-0.817993,0.251953,-38.574219,-37.414551,28.320311
5746,-0.402222,-0.820557,0.268799,-23.193357,-20.1416,18.737793
5763,-0.364258,-0.848877,0.271973,-16.967773,-13.916015,16.479492
5780,-0.374146,-0.875122,0.255371,-10.437011,-9.338379,15.563964
5796,-0.39502,-0.894531,0.24939,-9.643555,-11.108397,15.563964
5813,-0.419678,-0.906738,0.232422,-13.610839,-11.901855,15.686034
5830,-0.423218,-0.886719,0.222656,-21.484373,-11.96289,16.113281
5847,-0.417358,-0.881104,0.227783,-17.272949,-9.70459,16.723633
5864,-0.391235,-0.871704,0.236328,-13.610839,-9.216309,17.51709
5880,-0.376221,-0.858643,0.236084,-10.009766,-11.779784,19.53125
5897,-0.369995,-0.853516,0.232422,-9.460449,-17.76123,21.301268
5914,-0.373413,-0.85376,0.233154,-7.751464,-22.15576,21.667479
5931,-0.400146,-0.864868,0.233154,-6.774902,-30.273436,19.958496
5947,-0.411743,-0.868896,0.224609,-18.066406,-31.799314,15.563964
5964,-0.412598,-0.870483,0.213013,-25.329588,-27.526854,12.573241
5981,-0.383911,-0.868286,0.231934,-22.888182,-25.329588,12.451171
5998,-0.367432,-0.866455,0.243896,-15.930175,-24.04785,14.343261
6015,-0.349243,-0.85083,0.252686,-11.230468,-26.489256,15.197753
6031,-0.34668,-0.841675,0.248413,-8.422852,-28.503416,14.343261
6048,-0.352539,-0.853149,0.254395,-2.441406,-32.531738,11.413573
6065,-0.375732,-0.900391,0.275879,-5.249023,-31.86035,9.399414
6082,-0.387939,-0.901001,0.27771,-11.230468,-29.541014,8.544922
6099,-0.387695,-0.887085,0.278564,-20.874022,-22.583006,5.92041
6116,-0.378784,-0.866821,0.283813,-15.075683,-14.22119,3.234863
6133,-0.368408,-0.880493,0.283569,-9.82666,-10.986327,2.502441
6149,-0.368286,-0.891479,0.278564,-4.577637,-8.544922,2.746582
6166,-0.37915,-0.90564,0.270752,-3.601074,-9.58252,3.479004
6183,-0.383179,-0.921021,0.261719,-4.272461,-10.31494,4.02832
6199,-0.382446,-0.922974,0.255737,-9.70459,-12.145995,5.249023
6216,-0.383423,-0.928589,0.243164,-13.244628,-13.061522,5.981445
6232,-0.387695,-0.949219,0.236572,-19.592285,-14.709472,7.446289
6249,-0.387451,-0.959229,0.234863,-26.977537,-17.63916,10.131835
6266,-0.377075,-0.973389,0.226929,-31.249998,-19.53125,12.268065
6282,-0.366089,-0.993896,0.218018,-39.245605,-23.132322,17.089844
6299,-0.361084,-1.003662,0.214355,-48.400875,-27.221678,23.498533
6316,-0.359863,-1.005371,0.211548,-52.978512,-30.456541,27.160643
6333,-0.364014,-1.001221,0.225708,-57.250973,-39.306641,33.935547
6349,-0.362305,-1.012573,0.22168,-59.875484,-46.813961,39.672852
6366,-0.362549,-1.021973,0.218384,-63.415524,-49.987789,43.029781
6383,-0.361694,-1.007446,0.226196,-71.594238,-53.833004,51.452633
6399,-0.356689,-0.991699,0.233521,-76.477051,-58.959957,60.363766
6416,-0.34314,-0.957031,0.24353,-77.392578,-62.19482,63.659664
6433,-0.330322,-0.929932,0.251221,-78.186035,-68.115234,67.199707
6450,-0.327271,-0.914062,0.25415,-76.538086,-72.509766,68.664551
6467,-0.320313,-0.887695,0.26416,-74.523926,-74.34082,68.908691
6483,-0.318237,-0.880859,0.275635,-69.763184,-77.392578,67.932129
6500,-0.321167,-0.881348,0.282349,-69.396973,-79.162598,67.321777
6517,-0.328491,-0.88501,0.303223,-71.289062,-79.589844,68.17627
6533,-0.341431,-0.876465,0.317627,-77.758789,-78.430176,70.983887
6550,-0.342651,-0.865479,0.321655,-83.496086,-76.23291,72.32666
6567,-0.332031,-0.848755,0.332153,-85.754387,-75.561523,72.753906
6584,-0.331909,-0.838623,0.353027,-88.378899,-77.453613,74.279785
6600,-0.327759,-0.828003,0.371216,-85.998528,-86.181633,77.941895
6617,-0.312012,-0.79187,0.406128,-83.19091,-92.8955,80.688469
6634,-0.308838,-0.768066,0.424683,-75.98877,-107.116692,86.181633
6650,-0.306396,-0.76416,0.430176,-69.152832,-118.10302,88.439934
6667,-0.305542,-0.768555,0.444458,-68.17627,-121.520988,88.378899
6684,-0.312378,-0.782837,0.466431,-71.411133,-123.229973,87.524406
6701,-0.314453,-0.781738,0.473999,-78.24707,-121.032707,87.036125
6718,-0.32373,-0.759155,0.482178,-81.481926,-120.056145,86.486809
6735,-0.32373,-0.743286,0.484253,-85.144035,-120.483391,82.580559
6752,-0.32373,-0.734863,0.484497,-85.327141,-123.168938,77.331543
6769,-0.341675,-0.705688,0.492676,-83.06884,-124.206535,75.500488
6786,-0.371216,-0.713013,0.530518,-76.782227,-124.938957,74.09668
6803,-0.38269,-0.720581,0.55542,-73.242187,-126.342766,76.660156
6820,-0.394043,-0.713501,0.596436,-72.143555,-128.234863,78.674316
6837,-0.396851,-0.69043,0.610107,-71.350098,-132.995605,82.031242
6853,-0.399902,-0.672119,0.607422,-67.077637,-134.399414,80.444328
6870,-0.407104,-0.628906,0.604492,-61.706539,-134.521484,77.575684
6886,-0.418701,-0.620361,0.619629,-48.156734,-136.474609,72.08252
6903,-0.422852,-0.627319,0.625,-37.719727,-138.244629,68.908691
6919,-0.436157,-0.643433,0.625366,-35.095215,-137.573242,67.565918
6936,-0.462524,-0.660278,0.633301,-35.522461,-134.399414,64.819336
6953,-0.473755,-0.661621,0.638062,-43.273922,-130.249023,62.866207
6969,-0.491821,-0.65271,0.643555,-49.377438,-127.319328,62.255856
6986,-0.503662,-0.627319,0.649414,-63.110348,-119.99511,60.791012
7002,-0.507812,-0.607422,0.650146,-74.09668,-111.755363,58.04443
7019,-0.50647,-0.55188,0.651978,-76.721191,-108.337395,56.27441
7036,-0.506714,-0.516846,0.664917,-76.416016,-104.797356,52.24609
7053,-0.509277,-0.514526,0.673584,-73.791504,-102.905266,48.950191
7070,-0.510742,-0.521484,0.706299,-73.913574,-100.952141,48.400875
7087,-0.514648,-0.53186,0.76355,-78.369141,-87.890617,51.635738
7103,-0.518188,-0.521973,0.776489,-76.599121,-58.471676,55.969234
7120,-0.517212,-0.460693,0.761475,-69.824219,-41.259762,54.870602
7137,-0.493408,-0.415771,0.740112,-46.630856,-11.718749,41.931149
7154,-0.478638,-0.427002,0.731934,-22.15576,7.080078,19.897461
7171,-0.45874,-0.487305,0.726807,-13.122558,12.145995,9.887695
7187,-0.455688,-0.578857,0.741089,-7.324218,15.258788,-3.173828
7204,-0.456543,-0.621338,0.751465,-19.226074,11.474608,-7.202148
7221,-0.459961,-0.676636,0.776245,-30.578611,7.263183,-6.713867
7238,-0.483276,-0.717407,0.811035,-58.349606,-8.728027,-4.577637
7255,-0.501465,-0.747437,0.851685,-97.106926,-36.682129,-2.319336
7272,-0.572998,-0.835205,0.975708,-121.520988,-50.842281,1.708984
7289,-0.642578,-0.913696,1.142822,-174.438461,-51.208492,17.578125
7306,-0.667969,-0.841187,1.267578,-188.415512,43.640133,26.000975
7323,-0.720703,-0.619385,1.781128,-98.57177,276.489258,24.780272
7340,-0.878784,-0.763916,1.766235,-43.823238,424.316376,49.377438
7357,-0.990601,-0.859497,1.58252,-94.78759,668.029724,159.912109
7373,-0.939697,-0.545288,1.168335,-152.22168,738.464294,203.857407
7391,-0.339478,-0.082886,0.862305,-223.388657,742.065369,205.810532
7407,-0.100342,0.044922,0.745117,-206.542953,670.532166,131.347656
7423,0.039185,0.098511,0.424194,-152.404785,637.512207,75.134277
7440,0.124023,0.067383,-0.044922,-1.770019,564.697266,-53.405758
7456,0.219849,-0.030518,-0.339111,121.582024,462.402313,-161.132797
7473,0.497559,-0.220825,-0.805298,166.198715,395.202606,-190.185532
7490,0.693481,-0.456665,-1.022827,215.759262,218.200668,-206.481918
7507,0.747192,-0.638306,-1.015747,182.739243,-4.089355,-179.87059
7523,0.758301,-0.766113,-0.725464,146.057129,-114.19677,-154.602051
7540,0.580322,-0.742187,-0.525391,81.05468,-313.598633,-102.661125
7557,0.412842,-0.671875,-0.449707,36.865234,-496.948212,-57.128902
7574,-0.008911,-0.451294,-0.182129,41.015621,-577.636719,-42.297359
7591,-0.346436,-0.280273,0.203491,142.39502,-677.001892,-28.503416
7608,-0.368774,-0.352295,0.328857,250.793442,-695.80072,-32.165527
7624,-0.53894,-0.724243,0.411377,252.685532,-713.806091,-30.578611
7641,-0.828003,-0.778809,0.616699,161.193832,-758.911072,-19.226074
7658,-0.896484,-0.816772,0.760254,42.175289,-733.581482,-9.216309
7675,-0.950562,-0.917969,1.147705,-5.065917,-689.086853,0.976562
7692,-0.99646,-0.581665,1.5979,-52.12402,-526.367188,13.549804
7709,-1.017822,-0.375366,1.706421,-3.173828,-273.803711,-9.277344
7726,-1.022949,-0.390625,1.771729,33.14209,-136.108398,-25.207518
7743,-0.957031,-0.525391,1.609131,80.200195,130.310059,-41.503902
7760,-0.908569,-0.571045,1.450439,74.645996,348.937958,-48.095699
7776,-0.77832,-0.622314,1.028198,62.07275,498.10788,-67.993164
7794,-0.6698,-0.630493,0.673706,68.664551,553.161621,-84.655754
7811,-0.615723,-0.818237,0.517456,71.044922,638.427734,-121.826164
7827,-0.606812,-0.869751,0.484497,48.400875,697.387634,-153.137207
7844,-0.577026,-0.751953,0.49231,45.349117,709.167419,-171.874985
7861,-0.535278,-0.642578,0.462402,34.484863,700.195251,-224.365219
7878,-0.433472,-0.858887,0.215454,-22.27783,649.902283,-272.583008
7895,-0.227661,-1.035645,-0.001221,-33.081055,599.79248,-276.123047
7911,-0.111694,-0.973267,-0.130615,-9.460449,453.308075,-257.8125
7929,0.16748,-1.099365,-0.293945,41.198727,290.283203,-193.48143
7945,0.251465,-1.350952,-0.226562,55.541988,214.599594,-145.751953
7962,0.178711,-1.401001,-0.109619,54.016109,87.951653,-48.583981
7979,0.13562,-1.319458,-0.045044,29.418943,1.831055,22.705076
7996,0.116577,-1.072754,0.055664,10.19287,-26.30615,44.189449
8012,0.12854,-0.941162,0.1698,-14.587401,-61.035152,63.476559
8029,0.12207,-0.908813,0.215454,-20.26367,-76.538086,60.974117
8046,0.151245,-0.871582,0.272827,-22.033689,-77.209473,56.15234
8063,0.211914,-0.832275,0.320679,-23.071287,-75.683594,43.640133
8079,0.22937,-0.81604,0.34729,-21.728514,-74.829102,33.569336
8096,0.238647,-0.819336,0.407715,-13.000487,-71.960449,29.418943
8113,0.245239,-0.842773,0.428711,6.958007,-60.05859,25.146482
8129,0.263672,-0.884644,0.434448,0.183105,-48.706051,28.442381
8146,0.273071,-0.865112,0.445435,-6.286621,-45.349117,30.395506
8163,0.269897,-0.863892,0.441162,-14.953612,-42.907711,31.005857
8179,0.276611,-0.869385,0.432007,-14.648437,-45.898434,30.334471
8196,0.281738,-0.865601,0.435791,-12.878417,-49.865719,30.334471
8213,0.278442,-0.859863,0.439209,-13.244628,-58.28857,31.677244
8230,0.248657,-0.838379,0.455811,-14.770507,-60.607906,31.127928
8246,0.228882,-0.834839,0.490723,-12.939452,-57.617184,29.174803
8263,0.236084,-0.84082,0.502075,-9.58252,-48.034664,25.207518
8280,0.26001,-0.849365,0.494629,-10.437011,-44.982906,24.780272
8296,0.264771,-0.825562,0.477539,-17.456055,-46.508785,26.245115
8313,0.257568,-0.80542,0.478149,-19.958496,-51.513668,24.963377
8329,0.243286,-0.800659,0.490723,-16.601562,-52.612301,22.521971
8346,0.253906,-0.813477,0.504272,-8.422852,-53.466793,17.822266
8363,0.258423,-0.824219,0.508789,-4.882812,-56.03027,18.737793
8379,0.250732,-0.858643,0.507202,-6.408691,-58.410641,21.728514
8396,0.247559,-0.876221,0.499023,-17.63916,-65.917969,30.151365
8413,0.243896,-0.869019,0.499756,-33.752441,-75.98877,39.733887
8430,0.227051,-0.834106,0.498413,-40.832516,-80.444328,43.395992
8446,0.209961,-0.79248,0.48999,-53.039547,-87.951653,46.32568
8463,0.200073,-0.7771,0.490479,-59.509274,-95.092766,43.579098
8479,0.179077,-0.743652,0.512573,-57.800289,-98.449699,41.137691
8496,0.160034,-0.720947,0.540771,-45.593258,-100.58593,37.231445
8513,0.154541,-0.719116,0.550659,-35.217285,-99.121086,35.217285
8530,0.142334,-0.720215,0.571289,-31.433104,-99.182121,34.545898
8546,0.130615,-0.730713,0.602173,-26.977537,-99.914543,33.935547
8563,0.118408,-0.736572,0.610962,-28.19824,-98.69384,34.973145
8579,0.095703,-0.734863,0.604736,-31.86035,-96.496574,34.973145
8596,0.071777,-0.727417,0.587524,-41.259762,-88.928215,32.348633
8613,0.067139,-0.722168,0.57959,-47.241207,-82.336418,30.395506
8629,0.067139,-0.70752,0.579956,-47.241207,-82.214348,31.372068
8646,0.069336,-0.697021,0.589478,-40.64941,-90.637199,36.804199
8663,0.064575,-0.679565,0.619141,-31.066893,-107.299797,43.334957
8679,0.039673,-0.68103,0.660889,-25.939939,-116.516106,46.264645
8696,0.023437,-0.691162,0.681885,-17.700195,-130.065918,50.964352
8713,-0.005371,-0.72168,0.716064,-19.226074,-133.972168,56.091305
8729,-0.036011,-0.726685,0.742065,-22.888182,-133.056641,59.204098
8746,-0.051392,-0.722778,0.754395,-32.165527,-131.774902,65.551758
8763,-0.066895,-0.708618,0.792969,-36.254883,-133.361816,68.359375
8779,-0.082642,-0.68811,0.835571,-41.442867,-137.634277,73.303223
8796,-0.093018,-0.678223,0.854126,-46.081539,-139.160156,79.528809
8813,-0.127075,-0.669189,0.886353,-49.133297,-139.892578,83.251945
8830,-0.15918,-0.650879,0.919556,-55.419918,-141.113281,89.416496
8847,-0.176392,-0.627197,0.932983,-59.93652,-136.291504,91.064445
8863,-0.209839,-0.571533,0.931763,-62.255856,-129.638672,88.073723
8880,-0.220215,-0.53833,0.911865,-66.162109,-109.436028,76.23291
8897,-0.218384,-0.526855,0.903687,-60.363766,-86.730949,67.016602
8914,-0.222412,-0.513672,0.902466,-54.443356,-76.782227,65.673828
8931,-0.231567,-0.49231,0.918335,-41.870113,-63.110348,67.321777
8948,-0.233032,-0.474243,0.922241,-30.334471,-56.091305,70.068359
8965,-0.237305,-0.446411,0.914307,-18.493652,-52.490231,68.42041
8982,-0.241821,-0.453735,0.900146,-13.305663,-50.47607,65.185547
8998,-0.240234,-0.464844,0.887573,-8.850098,-45.654293,59.082027
9015,-0.236694,-0.477417,0.860352,-10.0708,-41.015621,56.03027
9032,-0.243408,-0.487671,0.851685,-12.20703,-39.245605,55.480953
9048,-0.24707,-0.48645,0.850708,-18.371582,-38.024902,54.931637
9065,-0.241577,-0.46582,0.845337,-21.606443,-40.64941,54.504391
9082,-0.230713,-0.441406,0.838013,-21.362303,-43.334957,54.321285
9099,-0.225464,-0.430542,0.83667,-18.432617,-50.23193,53.100582
9115,-0.233521,-0.430054,0.848511,-16.479492,-53.955074,51.879879
9132,-0.247559,-0.437744,0.867676,-13.122558,-59.082027,48.400875
9149,-0.255493,-0.44104,0.870239,-14.22119,-59.387203,42.41943
9165,-0.271606,-0.454834,0.872681,-17.456055,-58.959957,38.757324
9182,-0.279907,-0.447998,0.878662,-24.719236,-57.800289,33.447266
9198,-0.286377,-0.440063,0.882568,-28.19824,-55.908199,30.700682
9215,-0.301025,-0.422119,0.880249,-28.381346,-54.443356,29.418943
9231,-0.312988,-0.406128,0.879517,-26.18408,-52.673336,27.282713
9248,-0.313232,-0.397461,0.883423,-21.118162,-50.903316,25.085447
9264,-0.320801,-0.398438,0.89624,-18.615723,-48.46191,23.498533
9281,-0.334229,-0.403687,0.893188,-14.709472,-41.076656,18.981934
9298,-0.338745,-0.402344,0.886353,-12.573241,-33.508301,13.85498
9315,-0.347046,-0.402954,0.874146,-11.840819,-30.761717,11.535644
9331,-0.351563,-0.410156,0.866821,-11.352538,-27.526854,6.652832
9348,-0.353271,-0.413086,0.866821,-12.939452,-26.672361,2.01416
9365,-0.354004,-0.414917,0.859497,-14.282226,-27.038572,0.244141
9382,-0.350464,-0.419067,0.869141,-18.188477,-29.113768,-1.342773
9399,-0.342407,-0.420654,0.877441,-23.010252,-30.2124,-1.708984
9416,-0.325195,-0.463257,0.913574,-26.123045,-30.944822,-1.342773
9433,-0.35144,-0.621582,1.058838,-35.766602,-31.86035,4.882812
9449,-0.398438,-0.686768,1.246826,-37.597656,-0.427246,23.193357
9467,-0.545166,-0.74707,1.518311,-26.672361,50.659176,29.724119
9483,-0.628296,-0.719727,1.713013,-2.502441,209.472641,36.499023
9500,-0.656128,-0.683105,1.766357,72.509766,437.86618,50.903316
9516,-0.784912,-0.632324,1.5448,121.093742,563.049316,70.861816
9533,-0.600342,-0.595215,1.195923,134.094238,732.299744,115.844719
9550,-0.263672,-0.616821,1.097656,-9.277344,729.247986,114.929192
9567,0.208862,-0.484497,0.827759,-93.749992,687.011658,97.351067
9583,0.303467,-0.208496,0.366455,-156.311035,590.026855,60.913082
9600,0.314453,-0.185303,0.20459,-52.795406,502.502411,57.067867
9617,0.30127,-0.333984,-0.047607,-5.859375,464.416473,59.814449
9633,0.301636,-0.334839,-0.175781,6.896972,394.226044,58.593746
9649,0.354858,-0.278809,-0.450317,7.629394,303.833008,43.640133
9666,0.498779,-0.36792,-0.793091,12.145995,239.868149,35.217285
9683,0.614868,-0.400635,-0.950195,9.399414,65.185547,24.16992
9699,0.773804,-0.351563,-0.955811,12.939452,-39.733887,21.789549
9716,0.862671,-0.259033,-0.787598,32.592773,-251.892075,14.709472
9732,0.802368,-0.16272,-0.714478,71.960449,-470.519989,-14.09912
9749,0.357422,0.035767,-0.474854,118.286125,-577.209473,-42.358395
9766,-0.352295,-0.016113,0.057251,285.827637,-757.629333,-106.994621
9783,-0.675171,-0.196411,0.246948,509.033173,-825.805603,-145.324707
9800,-0.884155,-1.036865,0.390991,553.649902,-812.560974,-143.615723
9817,-0.806885,-1.577759,0.840576,370.361298,-763.183533,-77.819824
9833,-0.771851,-1.560669,1.026855,147.644043,-661.743103,25.878904
9850,-0.68396,-1.240845,1.125488,82.458488,-514.892578,74.951172
9867,-0.583374,-0.981934,1.156494,68.29834,-446.899384,78.125
9883,-0.592285,-0.801392,1.151978,55.664059,-317.687988,61.340328
9900,-0.655029,-0.650024,1.180542,56.640621,-257.263184,45.593258
9917,-0.731201,-0.781494,1.22522,57.067867,-133.728027,-1.159668
9934,-0.728027,-0.865479,1.272583,14.953612,11.657714,-62.499996
9951,-0.669678,-0.862671,1.274048,-37.719727,193.176254,-118.530266
9968,-0.629272,-0.728027,1.066528,-51.696774,286.132812,-144.40918
9985,-0.61499,-0.708862,0.91687,-69.335937,447.204559,-190.246567
10001,-0.593384,-0.654785,0.663818,-67.260742,578.430176,-231.201157
10019,-0.607666,-0.729126,0.46167,-55.297848,637.145996,-247.802719
10036,-0.676758,-0.703735,0.359009,-33.630371,733.398376,-259.094238
10053,-0.689087,-0.615234,0.265381,-14.160155,764.22113,-276.672363
10070,-0.630493,-0.713867,0.136963,-6.103515,747.985779,-293.701172
10087,-0.405029,-1.181519,0.00769,-37.414551,672.058044,-310.241699
10104,-0.155273,-1.267212,-0.060059,-73.425293,467.590302,-276.245117
10121,0.372803,-1.234497,-0.243286,-64.697266,348.144501,-239.196762
10138,0.497681,-1.388916,-0.155762,-11.474608,134.70459,-121.032707
10154,0.359619,-1.422852,-0.001221,6.16455,-14.343261,9.58252
10171,0.069946,-1.217163,0.232666,7.507324,-55.603024,51.452633
10188,0.097412,-0.965454,0.347168,27.770994,-92.224113,77.880859
10205,0.156494,-0.908691,0.39209,31.494139,-99.426262,74.035645
10222,0.21228,-0.887817,0.483765,23.193357,-98.937981,71.411133
10239,0.256226,-0.811523,0.577881,10.742187,-89.294426,64.575195
10255,0.290161,-0.77478,0.600952,0.793457,-72.998047,57.678219
10272,0.317749,-0.71936,0.594849,-11.718749,-66.894531,57.312008
10289,0.255981,-0.656616,0.596436,-38.208008,-57.312008,52.978512
10305,0.241699,-0.634033,0.630371,-5.676269,-35.339355,30.2124
10322,0.292603,-0.688354,0.644043,12.512206,-22.033689,17.822266
10339,0.347534,-0.759277,0.605469,9.765625,-7.141113,9.643555
10355,0.346924,-0.756592,0.584229,-19.836426,-11.657714,16.357422
10372,0.312622,-0.695679,0.570435,-28.137205,-17.51709,17.883301
10389,0.278687,-0.667358,0.594116,-16.235352,-27.099607,12.08496
10406,0.271973,-0.677124,0.61853,14.526366,-29.235838,2.380371
10423,0.276978,-0.728516,0.642944,23.315428,-27.9541,-0.854492
10440,0.276245,-0.762939,0.639648,21.911619,-25.268553,-2.197266
10456,0.272461,-0.775757,0.641357,11.657714,-23.681639,0.183105
10473,0.264771,-0.786499,0.652588,6.591796,-21.972654,1.708984
10490,0.266357,-0.769531,0.651367,-3.845215,-16.174316,4.272461
10507,0.266357,-0.763306,0.647095,-9.765625,-11.840819,4.821777
10524,0.261353,-0.736328,0.63855,-9.521484,-11.230468,4.150391
10541,0.259155,-0.72998,0.637817,-0.12207,-10.31494,0.549316
10558,0.26001,-0.744873,0.640015,9.58252,-9.338379,-1.89209
10574,0.255127,-0.776001,0.647461,10.437011,-9.399414,-1.708984
10591,0.23999,-0.786255,0.643677,3.479004,-8.544922,0.610352
10608,0.236816,-0.776245,0.637939,-6.103515,-6.652832,2.929687
10624,0.245605,-0.744995,0.631958,-6.408691,-5.981445,3.540039
10641,0.252075,-0.749756,0.630005,-1.708984,-6.286621,3.967285
10657,0.253174,-0.753174,0.629639,-2.197266,-9.155273,4.638672
10674,0.244385,-0.755249,0.631958,-4.577637,-10.0708,5.432128
10691,0.241699,-0.733032,0.636108,-9.094238,-10.009766,6.591796
10708,0.249146,-0.722168,0.638672,-7.446289,-10.253905,7.019042
10724,0.264526,-0.7146,0.64209,-5.371093,-11.474608,7.202148
10741,0.271973,-0.717529,0.648315,-2.075195,-16.845703,7.202148
10758,0.274292,-0.720215,0.657104,1.525879,-24.04785,7.751464
10774,0.277832,-0.728516,0.669678,2.01416,-27.526854,8.850098
10791,0.285156,-0.737427,0.665405,-6.713867,-36.499023,13.122558
10808,0.286621,-0.733521,0.663452,-24.230955,-50.720211,16.845703
10825,0.278564,-0.694336,0.69104,-28.381346,-58.776852,17.089844
10842,0.268799,-0.671387,0.746948,-25.024412,-71.655273,14.282226
10859,0.259644,-0.665527,0.769043,-29.96826,-77.209473,8.300781
10876,0.249878,-0.644409,0.780029,-36.010742,-79.162598,5.798339
10892,0.22229,-0.623779,0.819458,-34.912109,-80.688469,2.990722
10909,0.212036,-0.63916,0.82959,-22.460936,-72.44873,2.075195
10925,0.204102,-0.683716,0.831665,-19.775391,-67.565918,3.112793
10943,0.181885,-0.709351,0.835693,-26.977537,-58.837887,6.04248
10959,0.164917,-0.700439,0.837036,-36.499023,-47.363277,2.685547
10976,0.152832,-0.668213,0.828491,-39.367676,-41.015621,-2.868652
10993,0.157227,-0.647339,0.810425,-44.982906,-32.897949,-14.770507
11010,0.157471,-0.647095,0.804443,-45.410152,-31.738279,-20.019531
11027,0.140503,-0.668579,0.808472,-44.372555,-32.958984,-19.714355
11044,0.116455,-0.674072,0.824097,-41.931149,-36.376953,-16.052246
11061,0.105591,-0.664185,0.839722,-40.222164,-38.269043,-12.512206
11078,0.079346,-0.646729,0.853638,-40.100098,-38.024902,-11.535644
11095,0.051514,-0.620117,0.865356,-38.391113,-36.987305,-10.498046
11112,0.033691,-0.625977,0.874878,-36.193848,-31.433104,-11.535644
11129,0.004639,-0.649658,0.887817,-36.865234,-22.644041,-11.901855
11146,-0.008789,-0.619751,0.887085,-37.109375,-18.371582,-11.352538
11163,-0.007813,-0.60498,0.8927,-36.071777,-7.446289,-11.901855
11180,-0.005127,-0.589844,0.906982,-32.775879,5.798339,-11.840819
11197,-0.009277,-0.541626,0.935425,-28.07617,11.779784,-11.230468
11213,-0.00647,-0.514771,0.937256,-13.305663,22.705076,-10.498046
11230,-0.001587,-0.501221,0.918457,0.610352,29.846189,-10.31494
11247,0.005249,-0.518188,0.914185,5.065917,31.799314,-10.437011
11263,0.000732,-0.5354,0.920898,8.178711,33.26416,-10.498046
11280,-0.016968,-0.570435,0.926147,7.080078,33.508301,-10.498046
11297,-0.022583,-0.583496,0.914673,-1.098633,35.644531,-11.291503
11313,-0.023315,-0.57959,0.908691,-10.986327,41.748043,-13.97705
11330,-0.019897,-0.582886,0.893677,-19.226074,49.255367,-17.089844
11347,-0.010254,-0.593262,0.865601,-22.766111,52.978512,-18.127441
11364,0.000122,-0.589478,0.850464,-27.038572,59.265133,-18.432617
11380,0.024536,-0.575928,0.820679,-27.648924,60.974117,-17.700195
11397,0.045288,-0.557373,0.791016,-26.18408,60.302731,-16.601562
11413,0.056274,-0.55188,0.773071,-22.583006,55.969234,-17.150879
11430,0.070068,-0.55896,0.736206,-21.057127,53.710934,-17.51709
11446,0.071167,-0.57312,0.71106,-19.592285,51.208492,-18.127441
11463,0.071777,-0.580444,0.705078,-20.874022,49.072262,-18.981934
11479,0.086182,-0.582886,0.692993,-22.3999,46.997066,-18.737793
11496,0.112793,-0.563965,0.68103,-24.536131,40.832516,-15.99121
11512,0.124634,-0.552979,0.676392,-22.033689,31.677244,-11.169433
11528,0.136841,-0.52063,0.683716,-18.554687,25.085447,-8.300781
11545,0.141357,-0.505371,0.694092,-9.033203,10.742187,-3.356933
11561,0.142334,-0.510864,0.713745,-5.554199,5.737304,-1.708984
11578,0.139648,-0.518555,0.71814,-2.807617,1.464844,0.061035
11595,0.142212,-0.517578,0.72229,-5.249023,0.061035,0.427246
11611,0.144531,-0.507568,0.743408,-8.056641,-0.732422,0.732422
11627,0.140625,-0.483032,0.76355,-12.939452,-3.784179,2.868652
11644,0.139038,-0.467896,0.769897,-12.08496,-8.300781,4.821777
11660,0.139526,-0.455566,0.784302,-10.31494,-10.31494,4.699707
11677,0.142578,-0.452881,0.799805,-6.408691,-13.427733,4.455566
11694,0.144409,-0.450928,0.803589,-1.281738,-14.526366,5.371093
11710,0.14978,-0.44812,0.801392,1.464844,-14.526366,6.04248
11727,0.154175,-0.436279,0.804687,8.728027,-14.22119,5.432128
11744,0.16394,-0.448242,0.815186,14.831542,-13.97705,0.427246
11761,0.167358,-0.500366,0.84314,14.526366,-13.916015,-2.197266
11778,0.139282,-0.542847,0.880615,8.300781,-17.272949,-4.333496
11795,0.119507,-0.551025,0.928589,-3.479004,-29.296873,-2.258301
11811,0.070923,-0.601685,1.102905,-12.512206,-37.902832,0.732422
11828,-0.034424,-0.645996,1.42749,-31.738279,-40.832516,17.76123
11845,-0.132324,-0.602295,1.593018,-19.714355,49.072262,32.653809
11862,-0.367798,-0.622925,1.885376,3.417969,149.108887,26.916502
11879,-0.52002,-0.629272,1.776611,112.121574,435.913055,7.019042
11895,-0.658813,-0.585693,1.606445,189.270004,733.642517,20.751951
11912,-0.658813,-0.672363,1.000122,160.217285,842.651306,44.189449
11929,0.093628,-0.630859,0.460327,23.498533,915.405212,110.717766
11945,0.264893,-0.512085,0.292847,-60.607906,820.80072,141.418457
11962,0.165771,-0.274536,-0.203125,-67.932129,760.681091,144.226074
11979,0.109009,-0.163086,-0.758301,-27.404783,660.339294,127.014153
11996,0.086304,-0.144531,-1.00061,11.657714,550.720215,78.430176
12012,0.162109,-0.258179,-1.489746,8.178711,476.80661,49.072262
12029,0.363892,-0.47229,-2.045532,8.544922,267.63916,2.685547
12046,0.449097,-0.546265,-2.145264,13.000487,-28.381346,-17.211914
12063,0.431396,-0.376709,-1.767578,23.376463,-174.316391,-20.629881
12080,0.395508,-0.228394,-1.459106,65.429687,-400.024384,-27.099607
12097,0.39917,-0.193726,-1.342896,93.139641,-591.73584,-38.818359
12113,0.344116,-0.208374,-0.960815,110.900871,-687.560974,-46.691891
12130,-0.142944,-0.266357,-0.269287,225.158676,-869.262634,-59.326168
12147,-0.44519,-0.374268,-0.056152,446.838348,-961.486755,-63.537594
12164,-0.673584,-0.583618,0.457153,448.730438,-946.655212,-66.650391
12180,-0.290894,-1.693237,1.369141,325.805634,-788.330017,-37.04834
12197,-0.304443,-1.7146,1.416016,131.958008,-525.268555,83.618156
12214,-0.308472,-1.08252,1.450317,0.610352,-427.062958,122.13134
12231,-0.113525,-0.175537,1.5896,-64.147949,-286.804199,113.098137
12248,-0.02478,-0.095825,1.558472,23.559568,-181.64061,23.986814
12265,-0.018555,-0.33606,1.450317,44.616695,-140.74707,-12.08496
12282,-0.132812,-0.355835,1.467529,42.602535,-62.499996,-58.654781
12298,-0.138062,-0.368652,1.431885,4.455566,35.461426,-79.772949
12315,-0.036865,-0.367065,1.28479,-20.874022,86.303703,-84.411613
12332,0.039551,-0.307373,1.09375,-57.800289,177.85643,-104.003899
12349,0.054321,-0.299561,0.999756,-64.331055,243.408188,-141.967773
12366,0.095093,-0.348633,0.819336,-57.312008,265.74707,-162.963852
12382,0.197754,-0.497681,0.620972,-65.612793,289.611816,-201.538071
12399,0.240356,-0.540894,0.567871,-99.670403,296.020508,-229.736313
12416,0.271851,-0.682373,0.506592,-109.741203,299.804687,-242.919907
12432,0.260986,-0.87439,0.438599,-125.244133,310.424805,-263.305664
12449,0.246582,-0.921143,0.41272,-144.40918,313.476562,-272.949219
12465,0.246338,-1.049683,0.320313,-154.23584,307.556152,-274.475098
12482,0.253296,-1.123657,0.267456,-153.930664,273.925781,-264.526367
12499,0.299927,-1.164185,0.230713,-120.056145,219.543442,-233.215317
12515,0.424072,-1.166138,0.262451,-103.515617,185.974106,-199.768051
12532,0.52417,-1.149658,0.338013,-76.049805,107.055656,-90.637199
12549,0.500854,-1.058228,0.376709,-12.451171,31.433104,23.864744
12566,0.457153,-0.835449,0.404419,19.104004,3.234863,53.222652
12582,0.465698,-0.779541,0.433716,58.532711,-33.752441,55.358883
12598,0.487793,-0.784668,0.519531,58.715816,-40.893551,43.518063
12615,0.525269,-0.748901,0.537354,31.738279,-36.560059,23.315428
12631,0.545288,-0.7146,0.543457,15.563964,-28.686522,19.65332
12648,0.533203,-0.645874,0.571655,17.089844,-26.855467,21.423338
12664,0.521362,-0.637451,0.602051,19.836426,-23.742674,20.996092
12681,0.519531,-0.650513,0.624146,10.31494,-16.418457,17.578125
12698,0.503784,-0.620728,0.648315,3.417969,-10.986327,15.99121
12715,0.494995,-0.588867,0.63562,-6.469726,-0.549316,11.108397
12731,0.498535,-0.581665,0.633057,-7.446289,5.065917,4.150391
12747,0.512329,-0.569092,0.63208,-6.103515,6.286621,0.671387
12764,0.51416,-0.576904,0.62085,-2.075195,7.629394,-4.333496
12780,0.512451,-0.619995,0.587524,3.356933,6.408691,-5.554199
12797,0.503052,-0.64624,0.5802,5.371093,4.882812,-5.432128
12813,0.501343,-0.656738,0.5802,4.577637,1.953125,-4.577637
12830,0.50061,-0.671753,0.590454,2.868652,0.427246,-3.479004
12847,0.504272,-0.659058,0.598022,-1.586914,-1.647949,-0.305176
12864,0.505005,-0.638794,0.597412,-2.624511,-3.845215,1.525879
12880,0.508789,-0.622925,0.593994,-0.732422,-4.699707,1.220703
12897,0.505493,-0.627197,0.593872,5.798339,-5.676269,-0.366211
12913,0.501343,-0.63562,0.596558,10.681151,-5.310058,-2.258301
12931,0.495239,-0.659302,0.612183,11.657714,-5.126953,-2.624511
12947,0.484375,-0.682129,0.623413,9.033203,-4.272461,-2.075195
12964,0.477173,-0.683472,0.62207,0.671387,-2.258301,-1.464844
12980,0.482056,-0.672974,0.617798,-2.685547,-1.342773,-1.159668
12997,0.499268,-0.643921,0.621948,-3.479004,-0.671387,0.488281
13014,0.501343,-0.63208,0.62439,3.540039,-1.281738,3.356933
13031,0.489868,-0.633301,0.632568,8.300781,-1.281738,4.638672
13047,0.483154,-0.633789,0.641479,15.686034,0.488281,6.16455
13064,0.485596,-0.635986,0.647705,16.113281,2.319336,5.798339
13080,0.492187,-0.63916,0.649292,11.96289,2.563476,5.554199
13097,0.490356,-0.616211,0.625977,1.647949,0.671387,7.141113
13113,0.490479,-0.604492,0.610596,0.427246,-2.441406,10.009766
13130,0.494263,-0.571411,0.588379,4.272461,-3.967285,10.559081
13147,0.490845,-0.546143,0.585205,13.061522,-7.263183,5.92041
13164,0.488403,-0.549683,0.580811,14.343261,-9.399414,-4.455566
13180,0.49585,-0.566528,0.57373,14.587401,-9.338379,-9.338379
13197,0.489502,-0.574707,0.585327,17.578125,-7.141113,-15.380858
13213,0.474854,-0.587158,0.586548,19.775391,-3.417969,-17.028809
13230,0.449341,-0.626465,0.586914,18.432617,-2.807617,-16.540527
13246,0.446655,-0.640625,0.593384,10.131835,-1.098633,-16.357422
13263,0.452271,-0.658813,0.610352,2.929687,1.098633,-17.333984
13279,0.449219,-0.651855,0.615601,-15.136718,6.16455,-19.836426
13296,0.44751,-0.637573,0.622559,-24.16992,7.507324,-22.766111
13313,0.459351,-0.613892,0.637695,-24.658201,6.896972,-24.353025
13330,0.4729,-0.615967,0.638062,-22.521971,5.554199,-27.099607
13346,0.473267,-0.626221,0.634399,-18.371582,6.530761,-29.846189
13363,0.46228,-0.645752,0.624268,-16.479492,7.873535,-30.578611
13380,0.460571,-0.647827,0.625122,-13.85498,9.94873,-30.700682
13396,0.463257,-0.64563,0.625977,-12.939452,10.0708,-31.616209
13413,0.463745,-0.639404,0.630005,-13.244628,10.0708,-32.897949
13430,0.454224,-0.632446,0.636963,-13.305663,9.887695,-35.400391
13446,0.442993,-0.638916,0.640015,-13.549804,10.31494,-38.208008
13463,0.433105,-0.658691,0.639893,-13.732909,11.657714,-39.855957
13479,0.418213,-0.680176,0.63916,-15.686034,17.456055,-42.114254
13496,0.402954,-0.689331,0.633911,-16.845703,26.672361,-44.189449
13513,0.38916,-0.709351,0.619385,-17.456055,30.761717,-46.020504
13530,0.395264,-0.716553,0.609497,-19.958496,34.973145,-48.706051
13546,0.394531,-0.709229,0.609253,-19.897461,32.897949,-47.912594
13563,0.383667,-0.706909,0.606445,-17.883301,30.456541,-47.607418
13580,0.375854,-0.723511,0.594604,-14.22119,27.648924,-48.095699
13596,0.371094,-0.728027,0.592529,-11.169433,28.686522,-47.424313
13613,0.362183,-0.727295,0.602417,-8.911133,29.602049,-46.508785
13629,0.352539,-0.735107,0.606079,-6.225585,31.372068,-46.264645
13646,0.338013,-0.757324,0.59082,-7.873535,34.667969,-48.400875
13663,0.340088,-0.779175,0.558716,-9.399414,36.437988,-49.194332
13680,0.348145,-0.792236,0.542969,-12.817382,38.696289,-48.645016
13696,0.358521,-0.807861,0.514038,-16.174316,37.963867,-44.189449
13712,0.361816,-0.800415,0.491821,-16.662598,36.254883,-41.442867
13729,0.365234,-0.790527,0.484131,-14.404296,29.296873,-36.682129
13746,0.362061,-0.778076,0.481079,-11.291503,23.986814,-34.851074
13762,0.353027,-0.786133,0.494019,-2.258301,12.145995,-32.165527
13778,0.351807,-0.80542,0.496582,-4.699707,4.882812,-30.517576
13795,0.3302,-0.884888,0.50293,-15.86914,4.211426,-30.334471
13811,0.319946,-0.869995,0.483154,-49.194332,9.338379,-33.325195
13828,0.326416,-0.839844,0.45874,-72.570801,14.709472,-37.536621
13844,0.340942,-0.790283,0.43457,-74.584961,13.732909,-37.536621
13861,0.340576,-0.76416,0.446167,-56.457516,0.671387,-30.151365
13878,0.319336,-0.738159,0.508911,-21.301268,-24.29199,-17.028809
13894,0.290894,-0.74646,0.579468,-5.432128,-36.92627,-11.718749
13911,0.274902,-0.764648,0.607422,8.728027,-55.541988,-7.263183
13928,0.241699,-0.803467,0.65271,0.915527,-62.377926,-6.408691
13945,0.227417,-0.808472,0.679687,-6.469726,-62.255856,-5.004883
13962,0.220215,-0.781128,0.703369,-19.53125,-59.692379,-1.342773
13979,0.223022,-0.76355,0.712402,-27.9541,-58.349606,0.244141
13996,0.23999,-0.727173,0.715942,-29.96826,-58.776852,0.366211
14012,0.24707,-0.711914,0.716553,-28.930662,-62.499996,-0.12207
14029,0.239746,-0.702759,0.723877,-27.648924,-70.129395,0.061035
14045,0.217041,-0.751709,0.750977,-31.921385,-74.645996,-0.305176
14062,0.207764,-0.769409,0.781738,-56.457516,-85.693352,-2.075195
14079,0.158325,-0.725586,0.866943,-81.970207,-107.116692,-2.258301
14096,0.046387,-0.584351,1.024658,-85.20507,-121.337883,-4.150391
14113,-0.009277,-0.588257,1.140747,-85.327141,-127.075188,-14.587401
14130,-0.114014,-0.741943,1.389404,-98.81591,-51.147457,-16.296387
14147,-0.268188,-0.875854,1.514771,-106.811516,19.40918,-14.22119
14163,-0.362793,-0.741211,1.52771,-108.459465,188.354477,-12.023925
14180,-0.365356,-0.593262,1.582275,-37.658691,396.850555,-18.188477
14198,-0.466064,-0.312256,1.579224,49.987789,528.076172,-20.019531
14215,-0.748291,-0.3479,1.262207,253.417953,795.165955,-13.305663
14231,-0.672974,-0.562256,0.979126,256.408691,954.833923,33.752441
14248,-0.150879,-0.637451,0.550537,178.588852,954.223572,57.861324
14264,-0.109619,-0.365479,-0.075439,48.400875,846.557556,56.518551
14281,-0.108521,-0.295898,-0.448853,23.925779,725.830017,29.296873
14297,-0.08252,-0.259155,-1.065308,38.879395,666.56488,10.437011
14314,-0.066406,-0.289063,-1.376221,76.171875,526.062012,-19.592285
14331,-0.069214,-0.475342,-1.874023,66.589355,321.777313,-27.465818
14348,-0.148071,-0.586548,-2.000122,44.067379,201.110825,-27.343748
14365,-0.18103,-0.596924,-1.825073,18.676758,-30.944822,-35.15625
14381,-0.105835,-0.591187,-1.736694,22.644041,-237.976059,-60.363766
14398,0.151123,-0.572754,-1.496826,38.146973,-339.111298,-76.904297
14415,0.401123,-0.583374,-1.380981,96.252434,-551.330566,-115.966789
14432,0.371338,-0.567017,-1.244141,164.550766,-809.08197,-150.756836
14448,-0.272583,-0.680176,-0.644653,228.942856,-925.842224,-153.259277
14465,-0.706299,-0.77063,-0.347168,356.384247,-1057.128906,-119.140617
14482,-1.119019,-0.935181,0.166504,312.866211,-1029.602051,-77.514648
14499,-0.818359,-1.702759,0.632324,149.475098,-980.346619,-66.467285
14516,-0.619995,-1.471924,0.849121,-122.436516,-844.055115,31.372068
14533,-0.570679,-0.964233,0.922607,-199.096664,-666.870056,91.064445
14550,-0.506714,-0.028564,1.372559,-180.603012,-570.861816,76.965332
14566,-0.520996,0.364868,2.022095,-53.100582,-345.214813,-7.446289
14583,-0.567017,0.241333,2.07666,100.402824,-59.997555,-68.54248
14600,-0.516357,-0.248413,1.795654,137.634277,69.885254,-73.059082
14617,-0.306519,-0.460327,1.356812,119.262688,274.780273,-74.645996
14634,-0.223145,-0.458374,1.098022,70.495605,416.015594,-101.135246
14650,-0.115356,-0.541382,0.629761,60.729977,462.463348,-122.985832
14667,-0.037109,-0.743042,0.403687,45.227047,518.249512,-164.611801
14684,-0.006104,-0.842896,0.338745,-15.136718,534.851074,-203.857407
14700,0.030884,-0.856812,0.260132,-44.982906,527.038574,-226.318344
14717,0.095825,-0.862549,0.173584,-94.238274,487.792938,-276.733398
14734,0.127563,-0.959473,0.103027,-122.802727,423.339813,-307.617187
14751,0.164673,-0.994995,-0.045166,-110.778801,375.36618,-305.175781
14767,0.311279,-1.138428,-0.046021,-60.05859,256.225586,-268.676758
14784,0.365234,-1.246826,-0.042725,-8.483887,138.73291,-177.001938
14801,0.290039,-1.313721,-0.030029,4.638672,87.829582,-124.450676
14817,0.18103,-1.315552,0.014038,16.113281,18.737793,-50.292965
14834,0.060547,-1.285034,0.089844,1.098633,-8.422852,-24.29199
14851,0.089844,-1.189331,0.142944,-12.939452,-17.272949,-18.981934
14867,0.124146,-1.142456,0.197754,-23.803709,-34.545898,-7.446289
14884,0.174683,-1.041626,0.282349,-20.019531,-44.43359,2.929687
14900,0.185181,-0.983887,0.335571,-16.418457,-45.715328,5.371093
14917,0.176636,-0.973145,0.36145,-7.629394,-42.785641,5.371093
14934,0.168945,-0.985107,0.405396,-5.249023,-39.245605,3.784179
14950,0.172485,-0.973267,0.418091,-4.882812,-28.381346,1.220703
14967,0.17981,-0.973999,0.407959,-6.103515,-15.502929,-0.12207
14984,0.199585,-0.974487,0.410156,-2.807617,-11.474608,0.915527
15000,0.187744,-0.979126,0.412598,0.061035,-5.981445,3.295898
15017,0.196655,-0.965698,0.407959,-4.394531,0.427246,2.685547
15034,0.223389,-0.952881,0.395996,-4.089355,2.685547,3.234863
15050,0.219604,-0.957153,0.368042,-4.516602,2.746582,7.751464
15067,0.21582,-0.939331,0.366211,-5.371093,-1.159668,10.620116
15084,0.216919,-0.906372,0.371094,-3.540039,-2.319336,10.620116
15100,0.211426,-0.894653,0.371948,-3.173828,-3.662109,10.559081
15117,0.20752,-0.886597,0.380249,1.953125,-4.089355,8.300781
15133,0.207153,-0.891602,0.37146,4.516602,-2.685547,5.92041
15150,0.215088,-0.922363,0.342285,1.098633,0.12207,3.723144
15167,0.223022,-0.917114,0.335938,-6.286621,-4.089355,10.620116
15183,0.213867,-0.887573,0.325562,-7.629394,-7.995605,14.587401
15200,0.204224,-0.887695,0.322021,-8.422852,-12.390136,15.136718
15216,0.193604,-0.898926,0.314697,-11.779784,-9.399414,10.925292
15233,0.201782,-0.91394,0.307861,-14.892577,-7.324218,10.986327
15250,0.210693,-0.908936,0.308594,-20.751951,-8.239746,17.089844
15266,0.218506,-0.871094,0.317993,-22.521971,-11.718749,21.118162
15283,0.210815,-0.831665,0.322754,-23.742674,-20.751951,25.451658
15300,0.196777,-0.829102,0.324585,-20.446775,-27.038572,22.27783
15316,0.199585,-0.843628,0.326538,-21.057127,-27.832029,19.592285
15333,0.228027,-0.833862,0.338745,-29.479979,-29.418943,19.40918
15349,0.241455,-0.813721,0.350708,-36.804199,-35.644531,26.30615
15366,0.258301,-0.75415,0.371582,-38.085937,-40.222164,30.395506
15382,0.243286,-0.701416,0.367798,-36.560059,-48.21777,33.14209
15399,0.229736,-0.696289,0.366455,-29.296873,-51.818844,22.644041
15415,0.209839,-0.715088,0.383911,-27.526854,-52.24609,14.709472
15432,0.213501,-0.745605,0.408569,-30.639647,-51.940914,4.272461
15449,0.201538,-0.765747,0.414795,-41.198727,-56.640621,6.04248
15465,0.171997,-0.779541,0.428345,-46.630856,-60.668941,8.300781
15483,0.16333,-0.78894,0.437866,-51.940914,-68.42041,11.230468
15500,0.153198,-0.794189,0.441162,-52.185055,-76.11084,14.22119
15516,0.138306,-0.794189,0.457397,-51.391598,-80.01709,15.380858
15532,0.145874,-0.780396,0.501465,-48.522945,-88.98925,17.39502
15549,0.134644,-0.782715,0.517578,-49.682613,-94.726555,19.40918
15565,0.082764,-0.807617,0.517822,-52.978512,-93.627922,18.920898
15582,0.067627,-0.821045,0.515259,-59.570309,-86.85302,17.272949
15598,0.07251,-0.817627,0.549316,-59.814449,-85.876457,19.348145
15615,0.056396,-0.798096,0.603149,-54.992672,-91.735832,29.174803
15632,0.038452,-0.796265,0.620483,-57.800289,-98.69384,38.513184
15649,0.015015,-0.767212,0.637329,-61.706539,-100.402824,41.748043
15665,0.026611,-0.709106,0.669678,-67.199707,-101.440422,48.828121
15682,0.036499,-0.666992,0.698975,-60.852047,-105.651848,57.983395
15699,0.044556,-0.619019,0.74585,-54.504391,-108.215324,61.279293
15715,0.04541,-0.618286,0.764771,-50.109859,-114.013664,64.880371
15731,0.047729,-0.618042,0.775391,-56.03027,-127.80761,73.547363
15749,0.012939,-0.594604,0.812744,-58.227535,-138.85498,80.01709
15765,-0.086914,-0.572266,0.851318,-53.771969,-158.630371,85.815422
15782,-0.124268,-0.567383,0.856567,-48.645016,-164.489731,74.829102
15799,-0.167603,-0.570557,0.849243,-47.607418,-163.085922,65.612793
15816,-0.181274,-0.588013,0.840942,-47.973629,-159.362793,48.767086
15833,-0.189575,-0.604126,0.845459,-61.828609,-161.071762,42.724606
15850,-0.217041,-0.578613,0.860352,-69.702148,-164.794907,44.616695
15867,-0.269531,-0.498901,0.853638,-73.242187,-171.569809,47.363277
15884,-0.297729,-0.466797,0.854614,-63.232418,-173.217758,38.269043
15900,-0.338013,-0.434326,0.873535,-55.480953,-166.870102,30.456541
15918,-0.365723,-0.458252,0.897095,-41.625973,-141.113281,18.432617
15935,-0.385986,-0.476562,0.904053,-32.409668,-114.562981,16.845703
15951,-0.421387,-0.491455,0.914673,-30.334471,-96.435539,17.333984
15968,-0.433105,-0.482666,0.924561,-31.799314,-88.86718,16.540527
15984,-0.435181,-0.470215,0.921387,-35.217285,-70.007324,10.742187
16001,-0.438354,-0.454834,0.901123,-37.475586,-59.204098,7.019042
16017,-0.445312,-0.452637,0.907471,-43.945309,-45.471188,4.211426
16034,-0.450073,-0.44104,0.916138,-46.203609,-43.701168,7.141113
16051,-0.456665,-0.409912,0.910278,-44.799801,-43.334957,8.300781
16067,-0.464966,-0.382935,0.897583,-37.780762,-41.503902,9.216309
16084,-0.469482,-0.369995,0.902588,-26.123045,-39.245605,8.117676
16101,-0.470215,-0.368042,0.908813,-20.38574,-36.865234,6.591796
16117,-0.468018,-0.380859,0.904175,-10.559081,-30.700682,4.455566
16134,-0.472656,-0.393311,0.896118,-4.150391,-23.925779,3.662109
16151,-0.478027,-0.412354,0.880371,-2.563476,-20.38574,2.685547
16168,-0.467773,-0.429199,0.87207,-4.089355,-14.22119,0.732422
16184,-0.465576,-0.435547,0.867187,-9.033203,-11.474608,1.403808
16201,-0.467285,-0.428711,0.853271,-11.169433,-11.047362,2.13623
16218,-0.465942,-0.418579,0.831299,-13.305663,-10.131835,2.258301
16235,-0.465942,-0.41687,0.823242,-13.000487,-10.31494,1.953125
16252,-0.466675,-0.410645,0.824585,-11.840819,-11.535644,2.197266
16268,-0.47229,-0.409424,0.823486,-8.850098,-13.671874,2.563476
16285,-0.476074,-0.411621,0.818726,-7.385253,-12.939452,2.685547
16302,-0.477905,-0.422485,0.807495,-7.263183,-11.596679,2.258301
16319,-0.477295,-0.431519,0.796021,-9.155273,-9.277344,1.586914
16336,-0.476074,-0.428955,0.790771,-11.901855,-10.437011,3.051758
16353,-0.469971,-0.42041,0.776123,-13.061522,-12.268065,4.211426
16370,-0.46228,-0.406494,0.758301,-14.892577,-17.456055,6.469726
16386,-0.458618,-0.400024,0.750122,-15.441894,-23.559568,8.178711
16403,-0.459595,-0.398315,0.735962,-15.747069,-26.855467,9.338379
16420,-0.474731,-0.406372,0.720947,-16.662598,-34.912109,13.061522
16437,-0.479858,-0.407715,0.710449,-16.723633,-44.860836,16.723633
16454,-0.482544,-0.412231,0.679932,-17.456055,-50.415035,18.188477
16471,-0.489502,-0.409912,0.672852,-20.019531,-62.377926,19.40918
16488,-0.50061,-0.413574,0.686279,-25.634764,-73.364258,18.127441
16505,-0.543457,-0.480225,0.750122,-45.043941,-83.251945,23.437498
16522,-0.624512,-0.635254,1.002563,-60.424801,-83.557121,35.705566
16539,-0.713013,-0.635986,1.219604,-66.223145,-40.283199,80.93261
16556,-1.006836,-0.466309,1.630249,-9.338379,85.083,110.351555
16572,-1.217285,-0.445068,2.135376,24.536131,178.161606,106.62841
16589,-1.306396,-0.486084,2.264282,91.613762,452.026337,85.876457
16606,-1.559814,-0.640259,2.06604,60.241695,742.736755,109.191887
16623,-1.283447,-0.524414,1.573975,12.939452,833.984314,128.601074
16640,-0.532227,-0.245483,1.127197,-41.259762,860.839783,118.22509
16657,-0.319946,-0.165771,0.83606,-21.118162,767.028748,53.344723
16674,-0.148315,-0.1604,0.279785,0.976562,712.585388,16.174316
16690,-0.078491,-0.326538,-0.240479,56.579586,613.952637,-43.579098
16707,-0.026611,-0.370728,-0.490112,66.467285,522.033691,-65.551758
16724,0.09375,-0.41394,-0.841431,60.913082,469.604462,-64.63623
16740,0.327637,-0.429077,-1.119019,42.114254,335.021942,-40.771481
16757,0.448608,-0.449097,-1.237305,19.348145,144.165039,-2.075195
16773,0.582886,-0.460083,-1.338379,11.047362,30.09033,11.779784
16789,0.595337,-0.418579,-1.285522,15.747069,-209.594711,6.103515
16806,0.561157,-0.473267,-1.043213,35.400391,-327.514618,-14.404296
16823,0.251709,-0.453613,-0.727539,89.843742,-559.875488,-77.148437
16839,-0.104126,-0.414429,-0.516479,209.594711,-772.827087,-150.390625
16856,-0.950684,-0.704346,0.013794,307.800293,-851.745544,-176.147446
16872,-1.140869,-1.372681,0.416016,470.825165,-889.404236,-143.554687
16889,-0.983276,-1.712646,0.447632,392.333954,-772.582947,-34.057617
16905,-0.870361,-1.991333,0.519775,208.679184,-713.806091,17.089844
16922,-0.982422,-0.804077,0.84082,-135.131836,-627.807617,56.518551
16938,-0.948486,-0.294312,1.033447,-119.323723,-542.724609,-4.577637
16955,-0.868774,-0.206787,1.256714,-58.776852,-503.051727,-30.700682
16971,-0.875122,-0.313232,1.508057,-10.986327,-388.73288,-56.884762
16988,-0.910889,-0.315674,1.846924,22.827147,-147.155762,-75.195312
17005,-0.898682,-0.246948,1.596558,30.517576,-15.86914,-86.85302
17022,-0.883545,-0.245117,1.442627,12.451171,200.195297,-114.624016
17039,-0.811157,-0.286499,1.075439,19.042969,357.055634,-135.864258
17055,-0.714966,-0.260498,0.658813,42.175289,410.888641,-148.132324
17072,-0.669678,-0.342529,0.508545,54.809566,472.045868,-183.898911
17088,-0.606567,-0.570312,0.378906,48.400875,483.764618,-203.247055
17104,-0.562256,-0.698608,0.304199,53.649899,479.309052,-249.93895
17121,-0.533447,-0.78772,0.342651,35.705566,442.687958,-295.043945
17138,-0.482178,-1.018311,0.37915,6.469726,419.555634,-309.020996
17155,-0.404663,-1.060547,0.258423,-33.26416,348.510712,-315.551758
17172,-0.300659,-1.022583,0.180176,-30.700682,239.379868,-288.269043
17189,-0.125122,-1.21814,0.138794,-22.766111,179.687485,-252.624496
17205,-0.090698,-1.394043,0.236816,-17.76123,65.063477,-130.554199
17221,-0.153442,-1.30957,0.310791,-23.010252,-24.963377,-2.319336
17238,-0.30835,-1.000977,0.45813,-14.465331,-54.992672,33.081055
17255,-0.33606,-0.832886,0.628418,20.751951,-83.618156,41.259762
17271,-0.316284,-0.825562,0.680908,38.146973,-77.148437,18.737793
17288,-0.268799,-0.826416,0.746216,37.841797,-69.702148,11.840819
17304,-0.245117,-0.821167,0.778564,28.808592,-55.847164,8.666992
17321,-0.242554,-0.817383,0.789551,23.376463,-44.494625,11.96289
17338,-0.248047,-0.79834,0.783936,19.958496,-37.536621,12.939452
17354,-0.251953,-0.80542,0.776367,10.742187,-19.836426,14.404296
17371,-0.241943,-0.788818,0.769775,-2.990722,1.525879,16.723633
17388,-0.214966,-0.755005,0.746948,-11.352538,11.901855,17.63916
17405,-0.205078,-0.752197,0.722168,-25.573729,23.864744,20.812986
17422,-0.201416,-0.735718,0.691406,-33.691406,21.057127,25.634764
17438,-0.200806,-0.696899,0.664429,-34.362793,16.723633,27.648924
17455,-0.194092,-0.677979,0.630615,-32.592773,4.272461,29.846189
17472,-0.19165,-0.68103,0.641235,-22.15576,-10.19287,29.846189
17488,-0.186646,-0.680908,0.666626,-16.540527,-15.441894,30.334471
17505,-0.189819,-0.689941,0.669678,-14.709472,-22.033689,33.691406
17521,-0.205933,-0.702026,0.676025,-16.540527,-23.559568,35.888672
17538,-0.20874,-0.702271,0.677368,-24.536131,-24.230955,38.635254
17555,-0.210571,-0.701416,0.672852,-35.583496,-23.437498,39.978027
17571,-0.214111,-0.691406,0.648193,-41.259762,-21.972654,40.222164
17589,-0.19458,-0.690063,0.636719,-48.400875,-19.592285,42.41943
17605,-0.188599,-0.69397,0.634155,-49.743649,-21.057127,50.964352
17622,-0.189209,-0.690186,0.641846,-45.288082,-27.9541,61.401363
17639,-0.188599,-0.664062,0.675171,-41.870113,-33.874512,65.368652
17656,-0.193115,-0.645996,0.68335,-37.841797,-46.264645,70.19043
17673,-0.205688,-0.631592,0.665771,-39.123535,-52.551266,71.655273
17690,-0.211548,-0.635864,0.645996,-40.710445,-54.748531,71.899414
17707,-0.208618,-0.630371,0.6521,-40.832516,-62.805172,73.120117
17724,-0.204224,-0.61499,0.676025,-36.254883,-73.425293,75.866699
17740,-0.205933,-0.595581,0.699707,-34.057617,-78.125,77.636719
17757,-0.212769,-0.575562,0.698975,-32.104492,-84.533684,79.650879
17774,-0.237061,-0.538086,0.678589,-29.418943,-85.693352,75.195312
17791,-0.256348,-0.545654,0.689697,-26.428221,-85.571281,70.556641
17808,-0.252197,-0.592529,0.75293,-23.498533,-91.796867,61.828609
17825,-0.250488,-0.599731,0.790039,-38.208008,-107.482903,60.119625
17842,-0.267578,-0.583008,0.834961,-48.034664,-113.586418,61.645504
17859,-0.295532,-0.555664,0.83606,-59.204098,-116.394035,66.345215
17876,-0.309326,-0.540894,0.827393,-57.067867,-111.267082,67.871094
17893,-0.330322,-0.5271,0.825317,-54.687496,-108.215324,66.650391
17909,-0.340088,-0.513916,0.817749,-51.391598,-104.61425,61.645504
17926,-0.343628,-0.509033,0.80603,-54.687496,-106.262199,55.969234
17943,-0.360107,-0.473999,0.790405,-56.884762,-108.032219,53.161617
17960,-0.369995,-0.440552,0.771362,-54.809566,-107.788078,45.898434
17977,-0.371216,-0.437988,0.760986,-42.358395,-102.416985,41.625973
17994,-0.382202,-0.444092,0.733887,-35.949707,-99.243156,41.381832
18011,-0.394653,-0.457153,0.710693,-29.907225,-96.069328,42.175289
18028,-0.400146,-0.461548,0.700195,-33.14209,-96.862785,42.846676
18045,-0.425659,-0.463257,0.679687,-41.625973,-98.083488,41.503902
18062,-0.448242,-0.439209,0.682373,-48.095699,-97.900383,39.245605
18079,-0.456909,-0.414062,0.695679,-57.067867,-92.8955,32.592773
18095,-0.487793,-0.396362,0.736572,-46.997066,-80.505363,25.268553
18112,-0.495239,-0.404175,0.766724,-40.893551,-72.875977,21.972654
18129,-0.493652,-0.406372,0.77124,-37.719727,-60.302731,17.76123
18146,-0.496216,-0.411011,0.771851,-37.841797,-57.128902,16.784668
18162,-0.495483,-0.415649,0.766724,-36.315918,-57.861324,16.174316
18179,-0.491577,-0.417236,0.766846,-32.287598,-64.39209,17.150879
18195,-0.496094,-0.415771,0.773926,-30.029295,-67.932129,17.944336
18212,-0.521362,-0.399658,0.792603,-26.18408,-73.181152,17.883301
18228,-0.53479,-0.401245,0.803589,-24.841307,-73.059082,13.671874
18245,-0.56189,-0.425049,0.816284,-25.024412,-69.885254,11.108397
18262,-0.585083,-0.445068,0.804199,-28.503416,-58.654781,7.690429
18278,-0.59375,-0.447144,0.796387,-34.851074,-48.034664,7.263183
18295,-0.596313,-0.436035,0.785645,-37.04834,-44.55566,7.995605
18311,-0.603638,-0.416626,0.775757,-36.865234,-41.320797,10.19287
18328,-0.611694,-0.407837,0.770386,-33.14209,-42.053219,11.901855
18344,-0.625,-0.386475,0.766357,-29.785154,-42.41943,12.08496
18361,-0.629883,-0.375977,0.765015,-23.071287,-38.391113,10.19287
18378,-0.637939,-0.370605,0.751221,-21.301268,-29.96826,6.713867
18394,-0.638428,-0.374512,0.731079,-21.484373,-26.245115,5.187988
18411,-0.636353,-0.375,0.72168,-22.094725,-21.484373,3.173828
18428,-0.632568,-0.376343,0.703369,-23.803709,-20.38574,2.807617
18445,-0.633667,-0.373535,0.690674,-25.146482,-21.179197,2.685547
18462,-0.636597,-0.372681,0.685181,-28.808592,-24.353025,1.098633
18479,-0.640137,-0.377319,0.685669,-33.38623,-25.878904,-0.671387
18495,-0.655518,-0.383179,0.686401,-34.667969,-24.719236,-0.854492
18512,-0.68042,-0.393433,0.68335,-35.522461,-18.371582,-0.061035
18529,-0.6875,-0.394043,0.680542,-35.583496,-10.498046,1.342773
18546,-0.677246,-0.371216,0.672729,-34.545898,-7.507324,2.13623
18562,-0.667847,-0.356689,0.671387,-28.686522,-4.455566,3.112793
18579,-0.654419,-0.341553,0.663818,-19.836426,-4.577637,3.845215
18596,-0.659668,-0.333252,0.660278,-14.648437,-5.615234,4.02832
18613,-0.660889,-0.331421,0.662354,-3.173828,-9.58252,3.90625
18630,-0.657471,-0.321411,0.685669,5.676269,-11.230468,4.760742
18646,-0.665405,-0.326538,0.695557,10.0708,-8.056641,5.126953
18663,-0.673706,-0.338501,0.693481,15.380858,3.967285,5.615234
18680,-0.678101,-0.355103,0.691528,13.427733,14.343261,5.004883
18697,-0.672852,-0.372192,0.714722,9.82666,16.479492,4.638672
18714,-0.682617,-0.42749,0.815918,-1.098633,15.686034,5.126953
18731,-0.699829,-0.503052,0.924683,-16.113281,21.545408,16.235352
18748,-0.783203,-0.612061,1.18396,-24.230955,37.902832,30.395506
18764,-0.882935,-0.610107,1.418701,-44.55566,109.069817,59.143063
18781,-0.909424,-0.594604,1.60791,-28.686522,239.379868,75.317383
18798,-1.003418,-0.410889,1.987549,7.385253,334.655731,84.777824
18815,-1.15332,-0.214844,2.02063,79.589844,560.791016,116.638176
18832,-1.113892,-0.228149,1.884033,109.069817,728.576599,140.930176
18848,-0.768066,-0.38562,1.378784,103.515617,762.573181,134.277344
18865,-0.485718,-0.302368,0.783813,22.094725,745.788513,94.299309
18882,-0.460693,-0.168213,0.513306,-11.230468,687.316833,52.36816
18898,-0.411499,-0.220337,-0.043457,13.305663,650.69574,32.897949
18915,-0.189941,-0.411987,-0.524048,32.348633,542.785645,-3.051758
18932,-0.061768,-0.397339,-0.667847,-5.371093,389.770477,-32.653809
18949,0.178345,-0.421997,-0.89978,-14.831542,293.518066,-45.349117
18965,0.264648,-0.4552,-0.973755,3.540039,69.030762,-57.006832
18982,0.337036,-0.53064,-0.960449,33.935547,-164.184555,-63.537594
18999,0.358887,-0.544922,-0.855103,39.489746,-276.672363,-69.763184
19016,0.202271,-0.595703,-0.717407,59.692379,-508.300751,-87.280266
19033,-0.112061,-0.581177,-0.558472,128.356934,-742.004333,-114.624016
19050,-1.057129,-0.617798,-0.04126,190.795883,-841.918884,-135.986328
19067,-1.652466,-1.087769,0.41626,338.561981,-935.97406,-152.282715
19084,-1.515991,-1.331543,0.608032,363.281219,-800.109802,-85.693352
19101,-1.075928,-1.549438,0.555908,238.159164,-718.383728,-43.090816
19117,-1.178101,-0.760742,0.844238,-22.521971,-651.245056,3.417969
19134,-1.198608,-0.390503,0.989868,31.127928,-606.994629,-18.127441
19151,-1.164551,-0.537964,0.969116,78.308105,-576.11084,-40.832516
19168,-1.115601,-0.723022,1.338135,22.094725,-494.20163,-54.565426
19185,-1.110474,-0.526611,1.516113,-26.367186,-274.475098,-81.115715
19202,-1.221191,-0.133179,1.545288,-14.892577,-125.671379,-116.21093
19218,-1.296509,-0.192017,1.289185,18.798828,159.790039,-187.072739
19235,-1.291992,-0.315308,1.105957,15.380858,364.623993,-207.153305
19252,-1.299194,-0.263794,0.740845,22.27783,436.157196,-208.068832
19268,-1.224976,-0.254639,0.499756,81.542961,524.353027,-214.965805
19285,-1.19812,-0.24939,0.421509,181.823715,563.964844,-228.027328
19302,-1.177124,-0.535645,0.485107,216.003403,573.364258,-240.23436
19319,-1.324707,-1.072388,0.4823,180.480942,593.75,-268.005371
19336,-1.318115,-1.21228,0.370239,-31.433104,547.058105,-284.118652
19353,-0.934326,-1.137573,0.0271,-131.347656,473.815887,-281.799316
19370,-0.502441,-1.032227,-0.090576,-161.743149,265.930176,-229.797348
19387,-0.425659,-1.038696,0.041138,-8.666992,82.824699,-99.914543
19404,-0.542114,-1.078735,0.428833,35.095215,-8.666992,29.96826
19421,-0.630737,-0.936401,0.600586,21.545408,-28.991697,67.810059
19438,-0.615967,-0.816528,0.622192,-4.333496,-50.415035,88.439934
19455,-0.564331,-0.633667,0.698608,-10.131835,-52.307125,70.373535
19472,-0.470459,-0.549072,0.77771,-9.277344,-45.471188,58.593746
19489,-0.36499,-0.539917,0.827148,-7.324218,-29.174803,44.128414
19506,-0.327026,-0.534912,0.832275,-19.714355,-15.808105,46.264645
19523,-0.301636,-0.478516,0.833374,-29.052732,-10.559081,49.865719
19540,-0.291626,-0.40918,0.830688,-36.132812,1.464844,51.696774
19557,-0.278076,-0.383057,0.817017,-32.348633,14.465331,46.630856
19574,-0.255737,-0.361816,0.800293,-28.564451,18.310547,42.785641
19591,-0.23584,-0.348633,0.78894,-22.766111,19.348145,35.217285
19608,-0.230591,-0.338989,0.778076,-17.822266,11.596679,30.2124
19625,-0.243896,-0.341431,0.761597,-12.878417,5.310058,27.832029
19642,-0.262451,-0.356201,0.777466,3.112793,-6.16455,20.690916
19659,-0.265869,-0.386475,0.798462,19.775391,-10.559081,11.96289
19676,-0.27063,-0.453735,0.820801,13.000487,-9.460449,10.31494
19693,-0.296021,-0.463623,0.820923,5.432128,-8.361816,11.718749
19710,-0.31189,-0.456909,0.824951,-1.525879,-5.126953,14.953612
19727,-0.32373,-0.449585,0.825684,-2.13623,-1.403808,15.930175
19744,-0.322754,-0.449585,0.832275,-0.549316,0.0,15.563964
19761,-0.308594,-0.455811,0.835083,-1.89209,-0.488281,14.831542
19777,-0.303711,-0.457275,0.838623,-5.310058,-5.065917,15.502929
19794,-0.287231,-0.449219,0.844971,-7.080078,-7.141113,16.113281
19811,-0.27417,-0.433472,0.847046,-8.972168,-10.864257,17.944336
19828,-0.276855,-0.427368,0.852051,-2.502441,-13.916015,19.348145
19845,-0.290771,-0.431641,0.858887,0.976562,-14.465331,19.165039
19862,-0.296997,-0.447632,0.858887,4.638672,-13.183593,18.310547
19879,-0.296265,-0.452881,0.856934,5.737304,-9.460449,18.737793
19896,-0.282593,-0.459106,0.838867,4.577637,-7.141113,19.287109
19912,-0.265625,-0.466919,0.827271,2.197266,-4.272461,20.996092
19929,-0.257202,-0.47522,0.832153,-0.671387,-5.004883,23.376463
19945,-0.240601,-0.471924,0.837158,-4.272461,-6.347656,24.597166
19962,-0.230347,-0.448608,0.84082,-9.82666,-12.145995,26.428221
19979,-0.225708,-0.441772,0.850342,-4.394531,-19.042969,27.343748
19996,-0.215942,-0.437988,0.863525,1.464844,-20.874022,27.648924
20012,-0.213013,-0.463867,0.880493,11.474608,-21.667479,27.709959
20029,-0.211792,-0.473755,0.88562,12.695312,-19.287109,27.282713
20046,-0.201294,-0.492432,0.874878,9.460449,-17.211914,27.526854
20062,-0.197754,-0.499023,0.864746,3.173828,-13.85498,31.188963
20079,-0.203857,-0.490601,0.85022,0.610352,-11.718749,36.010742
20095,-0.202515,-0.477173,0.84668,1.098633,-10.681151,37.17041
20112,-0.198608,-0.473145,0.847778,3.662109,-7.446289,37.536621
20129,-0.189819,-0.475952,0.843262,4.150391,-4.02832,38.574219
20146,-0.190796,-0.482666,0.8302,3.295898,-3.540039,40.039062
20163,-0.194946,-0.487549,0.827637,2.990722,-5.432128,43.640133
20179,-0.192871,-0.493774,0.821289,3.051758,-7.202148,45.227047
20196,-0.181519,-0.464844,0.813477,3.234863,-13.000487,48.706051
20213,-0.182861,-0.457397,0.820435,12.756347,-19.714355,48.767086
20230,-0.189087,-0.497192,0.853638,19.958496,-22.3999,47.790524
20246,-0.180908,-0.526855,0.87085,19.165039,-22.27783,48.33984
20263,-0.177368,-0.538208,0.879028,15.747069,-21.911619,50.903316
20280,-0.191528,-0.581177,0.918457,10.131835,-22.644041,53.527828
20297,-0.221558,-0.618774,0.954224,5.371093,-22.27783,54.199215
20314,-0.223755,-0.618408,0.964233,4.699707,-18.066406,52.307125
20331,-0.195923,-0.606934,0.984009,12.756347,-6.652832,43.884274
20347,-0.177979,-0.672729,0.983887,18.615723,0.610352,40.64941
20364,-0.188232,-0.727295,0.988159,26.733397,11.291503,38.146973
20381,-0.207153,-0.817749,0.988647,18.493652,18.676758,37.353516
20398,-0.195801,-0.847778,0.963989,11.596679,21.362303,37.902832
20415,-0.191162,-0.846802,0.940796,0.0,25.024412,38.696289
20431,-0.156128,-0.824951,0.907227,1.220703,26.000975,37.29248
20448,-0.095459,-0.802368,0.890137,7.263183,26.30615,36.071777
20464,-0.069824,-0.817993,0.881714,19.958496,25.085447,32.226562
20481,-0.05896,-0.843628,0.877686,23.498533,22.3999,30.151365
20498,-0.108398,-0.832153,0.87561,26.30615,14.09912,26.977537
20514,-0.139038,-0.821655,0.866089,27.343748,9.338379,25.878904
20530,-0.149048,-0.805054,0.834473,27.099607,9.94873,25.878904
20547,-0.095459,-0.809814,0.797119,23.437498,16.418457,23.864744
20563,-0.089355,-0.805664,0.775757,6.469726,25.207518,18.920898
20580,-0.11084,-0.793823,0.762085,-6.225585,28.137205,16.906738
20596,-0.092163,-0.749756,0.758057,-32.226562,24.841307,17.272949
20613,-0.067505,-0.710937,0.748535,-48.645016,12.08496,21.057127
20630,-0.030273,-0.616455,0.728394,-46.081539,5.065917,21.789549
20646,-0.02417,-0.573242,0.709717,-17.51709,-2.502441,17.211914
20663,-0.057007,-0.563965,0.688232,4.455566,-6.286621,6.04248
20680,-0.144897,-0.664062,0.730225,9.338379,-8.422852,1.586914
20696,-0.16626,-0.705688,0.757812,8.605957,-12.023925,2.319336
20713,-0.149902,-0.743286,0.773315,-1.098633,-11.596679,14.09912
20730,-0.08667,-0.696289,0.758545,-5.493164,-10.864257,20.935057
20747,-0.063232,-0.650635,0.746948,-7.751464,-9.216309,28.625486
20763,-0.071655,-0.579346,0.702515,0.183105,-3.90625,22.216795
20780,-0.075684,-0.560669,0.653931,6.469726,-0.671387,16.174316
20797,-0.067627,-0.561035,0.636475,19.897461,4.150391,6.286621
20814,-0.052734,-0.603638,0.643555,29.663084,4.638672,5.310058
20831,-0.077026,-0.697632,0.688721,32.531738,3.479004,8.544922
20847,-0.084351,-0.713379,0.701172,28.808592,-2.746582,14.953612
20864,-0.08728,-0.687622,0.720459,17.944336,-12.573241,15.686034
20881,-0.09021,-0.650024,0.727173,14.709472,-16.357422,14.465331
20898,-0.08728,-0.63623,0.722778,13.97705,-16.723633,10.253905
20914,-0.075928,-0.629761,0.697754,17.822266,-8.972168,7.202148
20931,-0.062866,-0.649902,0.687256,18.615723,-5.859375,8.728027
20948,-0.058472,-0.652344,0.688477,16.113281,-4.516602,15.502929
20965,-0.055542,-0.635742,0.683228,9.70459,-9.765625,20.812986
20981,-0.05542,-0.612915,0.671997,6.652832,-14.465331,22.644041
20998,-0.062134,-0.598755,0.674072,6.835937,-22.766111,24.108885
21015,-0.075684,-0.575684,0.683716,12.756347,-24.353025,23.803709
21031,-0.086792,-0.559204,0.692261,15.808105,-23.315428,23.559568
21048,-0.088867,-0.552612,0.687134,19.65332,-18.615723,20.507811
21065,-0.075928,-0.556396,0.665894,18.493652,-13.610839,15.380858
21082,-0.070557,-0.586182,0.65625,16.479492,-12.634276,12.573241
21099,-0.070923,-0.609131,0.652832,7.080078,-16.174316,8.972168
21116,-0.068359,-0.632568,0.663086,-8.972168,-26.794432,12.145995
21133,-0.076904,-0.62915,0.686401,-16.113281,-31.921385,14.953612
21150,-0.098145,-0.62561,0.709839,-28.320311,-38.330078,20.019531
21167,-0.106934,-0.613281,0.716187,-37.109375,-40.771481,23.864744
21184,-0.112549,-0.578247,0.723511,-39.367676,-41.076656,25.695799
21201,-0.125244,-0.567139,0.739258,-37.780762,-40.893551,29.418943
21218,-0.125732,-0.559692,0.737671,-33.38623,-41.320797,31.98242
21235,-0.116821,-0.533813,0.731812,-31.249998,-41.687008,31.86035
21252,-0.112061,-0.518677,0.755249,-18.432617,-38.146973,27.221678
21269,-0.108643,-0.535767,0.757812,-2.563476,-28.686522,21.972654
21286,-0.117798,-0.58313,0.748901,-0.366211,-24.597166,20.874022
21303,-0.125,-0.597534,0.748657,-6.225585,-20.507811,20.26367
21319,-0.121582,-0.590332,0.747314,-15.014647,-19.348145,22.216795
21336,-0.117554,-0.564209,0.739258,-18.005371,-19.226074,23.620604
21353,-0.131226,-0.55249,0.737305,-20.1416,-18.920898,24.902342
21370,-0.131104,-0.535889,0.739502,-13.793944,-14.892577,23.681639
21387,-0.121704,-0.515381,0.735474,-7.202148,-10.803222,22.644041
21403,-0.111206,-0.529541,0.720459,7.141113,-2.13623,21.728514
21420,-0.105835,-0.545288,0.719971,15.075683,2.807617,20.080564
21437,-0.100098,-0.594727,0.735718,15.563964,3.356933,18.432617
21453,-0.093872,-0.616943,0.748657,9.70459,1.525879,16.052246
21470,-0.091553,-0.615845,0.748901,-0.061035,-0.610352,14.709472
21487,-0.08728,-0.617187,0.743286,-4.272461,-1.342773,13.671874
21504,-0.074585,-0.61853,0.750732,-7.629394,-1.708984,11.291503
21521,-0.068115,-0.620605,0.755249,-2.01416,2.01416,10.19287
21537,-0.055786,-0.628906,0.751465,2.075195,4.760742,10.803222
21554,-0.040649,-0.63623,0.736938,8.789063,8.117676,13.000487
21570,-0.030884,-0.642822,0.727783,13.000487,7.019042,13.732909
21587,-0.019043,-0.672852,0.710449,13.183593,5.126953,13.549804
21604,-0.010742,-0.699707,0.701294,7.690429,0.183105,13.366698
21620,-0.008301,-0.699097,0.702637,-1.586914,-4.638672,15.747069
21637,-0.01123,-0.682251,0.714844,-5.249023,-7.202148,17.578125
21654,-0.011963,-0.658691,0.733154,-9.338379,-13.061522,20.202635
21671,-0.008667,-0.643555,0.73999,-8.972168,-18.554687,20.690916
21687,-0.002441,-0.61792,0.745972,-6.958007,-20.202635,20.202635
21704,0.005127,-0.625244,0.754761,-2.746582,-20.874022,17.944336
21721,0.005371,-0.634644,0.758667,-3.051758,-19.470215,15.014647
21738,0.011353,-0.649292,0.771973,-4.333496,-18.066406,13.97705
21754,0.011719,-0.64563,0.789062,-7.8125,-14.892577,13.732909
21771,0.013672,-0.640381,0.793213,-9.521484,-13.305663,15.136718
21787,0.019775,-0.621826,0.796631,-9.338379,-13.366698,15.502929
21804,0.02124,-0.616821,0.800781,-5.92041,-13.85498,14.831542
21821,0.023437,-0.621338,0.812744,-1.89209,-12.695312,13.427733
21837,0.017944,-0.631226,0.816528,-1.647949,-11.657714,12.573241
21854,0.013794,-0.635742,0.819702,-3.723144,-9.338379,9.94873
21871,0.006348,-0.646973,0.827515,-6.958007,-5.615234,7.446289
21887,0.001343,-0.648926,0.823364,-8.361816,-3.479004,6.958007
21904,-0.000977,-0.646484,0.819702,-9.82666,0.0,6.652832
21920,-0.006226,-0.640991,0.816895,-9.70459,1.281738,6.835937
21937,0.002197,-0.620972,0.837036,-6.713867,0.915527,8.544922
21954,0.005127,-0.599365,0.861328,-3.295898,-9.643555,11.535644
21970,-0.012085,-0.54248,0.988525,0.976562,-21.606443,11.535644
21987,-0.074585,-0.708374,1.448608,26.794432,-28.930662,12.268065
22004,-0.155762,-0.784546,1.741943,74.768066,103.210442,36.743164
22020,-0.50708,-0.835571,2.041138,94.299309,241.699203,47.912594
22037,-0.926025,-0.700439,1.866089,173.706039,581.237793,67.626953
22053,-0.930298,-0.71875,1.635742,169.799789,837.341248,90.88134
22070,-0.238281,-0.938477,0.996338,100.402824,884.948669,91.796867
22087,0.350464,-0.702271,0.459595,-65.246582,836.059509,80.566399
22103,0.311401,-0.527954,0.219116,-95.336906,725.341736,60.729977
22120,0.059448,-0.489258,-0.267578,-64.453125,673.828064,47.363277
22137,-0.114014,-0.557007,-0.755737,-29.174803,575.195313,13.549804
22153,-0.171387,-0.508667,-0.977783,-19.104004,443.237274,-32.958984
22170,-0.170654,-0.552612,-1.300171,-6.347656,358.642548,-57.373043
22187,0.00293,-0.752808,-1.59375,21.728514,150.756836,-83.007805
22204,0.085205,-0.842529,-1.613403,53.222652,-101.989738,-70.373535
22220,0.184692,-0.872437,-1.448608,64.147949,-225.158676,-56.396481
22237,0.200073,-0.845337,-1.37561,62.622066,-457.763641,-29.602049
22254,0.075439,-0.798218,-1.09082,67.504883,-677.612244,-22.583006
22270,-0.353882,-0.775269,-0.483765,82.641594,-763.183533,-26.550291
22287,-0.609619,-0.797607,-0.2146,137.634277,-854.614197,-36.621094
22304,-0.775146,-1.000732,0.191772,195.922836,-812.927185,-21.972654
22321,-0.516724,-1.178101,0.521729,187.56102,-746.643005,-4.089355
22338,-0.420654,-1.318359,0.718506,57.434078,-602.233887,60.546871
22355,-0.34729,-0.876465,1.136719,-27.221678,-514.160156,115.112297
22371,-0.27832,-0.172485,1.604858,-24.230955,-474.243134,109.741203
22388,-0.207275,-0.009399,1.878784,53.955074,-341.85788,32.470703
22405,-0.231812,-0.164795,1.848999,133.300781,-166.198715,-45.959469
22422,-0.302124,-0.492065,1.757935,140.136719,-83.312981,-63.354488
22438,-0.280029,-0.570801,1.545166,102.72216,71.044922,-74.21875
22455,-0.259644,-0.601562,1.36377,42.053219,201.782211,-94.66552
22472,-0.21936,-0.644531,0.970459,11.291503,250.549301,-111.145012
22489,-0.2146,-0.686279,0.756104,-32.531738,323.486298,-155.700684
22506,-0.231812,-0.692383,0.703735,-42.358395,386.169403,-209.838852
22522,-0.269287,-0.67688,0.58374,-32.470703,416.381805,-233.825668
22539,-0.255005,-0.791748,0.308594,-15.441894,458.190887,-263.244629
22556,-0.237549,-0.896118,0.17981,-35.095215,444.885223,-273.925781
22573,-0.18689,-1.070801,-0.00647,-48.767086,416.931122,-276.916504
22590,-0.1073,-1.195923,-0.078369,-67.749023,327.209442,-265.563965
22606,-0.062622,-1.244141,-0.085815,-57.250973,220.886215,-221.130356
22623,0.025269,-1.333984,-0.082764,-44.55566,168.457016,-185.54686
22640,-0.025146,-1.369141,0.02832,-15.136718,71.716309,-97.900383
22657,-0.074097,-1.346558,0.107178,-3.112793,5.554199,-25.451658
22673,-0.12561,-1.226929,0.182007,-8.666992,-15.319823,-6.774902
22690,-0.058594,-1.119019,0.243164,-17.578125,-42.724606,5.432128
22707,-0.021851,-1.069824,0.286499,-13.000487,-56.15234,12.268065
22724,0.03064,-1.006958,0.353271,-11.047362,-59.265133,16.662598
22741,0.036255,-0.993286,0.420654,-8.605957,-64.819336,25.756834
22758,0.033813,-0.973755,0.447754,-12.939452,-67.810059,30.029295
22774,0.032227,-0.927002,0.482788,-19.226074,-66.589355,29.602049
22791,0.036987,-0.90271,0.501709,-21.911619,-55.969234,24.780272
22807,0.029541,-0.901367,0.540405,-14.343261,-36.499023,19.348145
22823,0.020142,-0.944824,0.542358,-14.587401,-26.428221,17.883301
22840,0.02771,-0.941772,0.540527,-19.592285,-12.451171,18.127441
22856,0.037476,-0.919434,0.520996,-21.301268,-9.460449,19.042969
22873,0.044312,-0.911255,0.510254,-19.470215,-9.94873,21.545408
22889,0.042236,-0.90686,0.510742,-13.732909,-13.366698,25.573729
22905,0.022095,-0.942993,0.517212,-11.657714,-13.793944,27.893064
22922,0.015625,-0.974121,0.507202,-13.610839,-11.291503,33.691406
22938,0.026001,-0.976074,0.507202,-20.935057,-10.0708,40.344234
22955,0.04895,-0.966064,0.515625,-22.3999,-10.19287,43.457027
22971,0.059204,-0.962769,0.510864,-23.925779,-11.96289,51.025387
22987,0.064941,-0.952026,0.498657,-23.193357,-14.465331,55.786129
23004,0.065063,-0.953613,0.499634,-14.709472,-21.423338,63.598629
23020,0.071289,-0.963501,0.501587,-2.685547,-27.709959,70.373535
23037,0.072876,-0.975098,0.516113,2.01416,-29.296873,74.09668
23054,0.08374,-0.982178,0.527832,5.798339,-29.602049,80.13916
23070,0.099731,-0.978394,0.531006,1.464844,-31.98242,86.85302
23087,0.144287,-0.94458,0.540039,-0.793457,-34.973145,91.918938
23103,0.165039,-0.91333,0.55835,1.220703,-41.687008,104.064934
23120,0.167969,-0.906494,0.568481,10.19287,-45.410152,112.365715
23136,0.166016,-0.901978,0.584595,14.709472,-45.959469,113.586418
23153,0.162964,-0.910767,0.588745,17.089844,-44.128414,112.30468
23169,0.169556,-0.931396,0.59082,7.324218,-39.672852,110.961906
23186,0.227417,-0.884521,0.587036,0.732422,-38.024902,112.42675
23202,0.25293,-0.846191,0.590332,-3.662109,-37.719727,119.140617
23219,0.290283,-0.787476,0.613647,-1.037598,-39.0625,122.741692
23236,0.314331,-0.74231,0.639771,9.460449,-41.748043,127.80761
23252,0.316895,-0.736572,0.634399,14.160155,-41.320797,129.150391
23269,0.326416,-0.707153,0.610718,13.793944,-41.076656,127.868645
23285,0.332642,-0.681396,0.618896,16.723633,-39.672852,120.544426
23302,0.340332,-0.676758,0.626465,19.836426,-33.447266,111.938469
23319,0.372437,-0.655762,0.639771,21.606443,-27.9541,108.703606
23336,0.406128,-0.660889,0.630737,24.414061,-14.770507,105.957024
23352,0.411621,-0.67041,0.624756,23.681639,-6.958007,107.604973
23369,0.416748,-0.671021,0.618164,21.850584,-5.92041,108.337395
23385,0.445801,-0.626465,0.592407,17.456055,-6.408691,109.558098
23401,0.460571,-0.602051,0.58667,17.150879,-7.446289,111.267082
23418,0.497314,-0.550537,0.591797,18.371582,-6.652832,111.267082
23435,0.512573,-0.541016,0.5896,20.080564,-4.882812,110.41259
23451,0.533325,-0.514526,0.575317,20.690916,-7.507324,109.130852
23468,0.544189,-0.488037,0.565308,19.287109,-9.460449,108.154289
23484,0.547729,-0.477783,0.549072,10.620116,-14.404296,104.431145
23501,0.558594,-0.452637,0.519287,5.981445,-17.822266,101.318352
23517,0.588623,-0.38916,0.523071,5.493164,-22.15576,91.857903
23534,0.604858,-0.360352,0.518311,8.850098,-20.751951,80.93261
23550,0.623779,-0.332764,0.517334,11.96289,-20.26367,76.477051
23567,0.643188,-0.314819,0.511963,21.362303,-21.484373,70.129395
23584,0.654541,-0.303467,0.508789,30.395506,-25.878904,65.429687
23600,0.672729,-0.289917,0.507812,33.325195,-29.235838,62.988277
23617,0.680786,-0.292114,0.501343,35.583496,-39.428711,57.739254
23634,0.681885,-0.286377,0.51001,35.461426,-51.757809,51.635738
23650,0.670532,-0.281372,0.545288,34.240723,-55.908199,47.851559
23667,0.645142,-0.313232,0.588135,28.381346,-58.28857,39.245605
23684,0.635864,-0.337036,0.608521,21.118162,-55.847164,29.479979
23700,0.622192,-0.374512,0.647827,18.066406,-54.504391,24.29199
23717,0.614746,-0.396362,0.665894,6.652832,-50.659176,14.526366
23733,0.601196,-0.442261,0.709473,-6.958007,-39.18457,9.216309
23750,0.60144,-0.455933,0.727295,-11.96289,-30.883787,8.056641
23767,0.603271,-0.45105,0.729492,-15.930175,-15.319823,7.080078
23784,0.612305,-0.431519,0.730347,-13.244628,-4.516602,7.263183
23800,0.622803,-0.410278,0.723511,-10.437011,-0.793457,6.958007
23817,0.630127,-0.406616,0.715576,-4.821777,3.417969,4.516602
23833,0.639404,-0.409546,0.689087,-2.441406,4.333496,3.417969
23850,0.638672,-0.416626,0.671997,2.319336,4.821777,2.502441
23866,0.636475,-0.427979,0.668579,4.516602,5.981445,1.831055
23883,0.637695,-0.446899,0.658081,3.784179,6.835937,1.464844
23899,0.645508,-0.435059,0.63916,0.0,7.690429,1.525879
23915,0.649902,-0.430054,0.630127,-4.272461,5.981445,2.563476
23932,0.6604,-0.414429,0.621338,-5.310058,4.272461,3.173828
23948,0.664673,-0.400269,0.625366,-3.417969,0.244141,4.211426
23965,0.666748,-0.390747,0.633667,0.366211,-3.784179,4.455566
23981,0.6698,-0.398315,0.62915,2.01416,-6.103515,4.516602
23998,0.669922,-0.401123,0.621948,3.173828,-11.901855,4.455566
24014,0.662842,-0.418823,0.626831,2.441406,-15.136718,4.211426
24031,0.665161,-0.431396,0.646606,-3.662109,-19.714355,4.150391
24047,0.669434,-0.428955,0.643555,-12.512206,-22.705076,5.859375
24064,0.679687,-0.412354,0.625,-16.235352,-25.878904,6.652832
24080,0.692017,-0.383667,0.633179,-20.874022,-37.658691,5.798339
24097,0.693237,-0.389038,0.651001,-28.808592,-57.312008,3.845215
24114,0.698975,-0.452637,0.729736,-39.18457,-71.533203,5.371093
24130,0.675293,-0.452881,0.900635,-70.983887,-105.224602,21.789549
24147,0.61438,-0.418823,1.036011,-88.98925,-127.136223,50.842281
24163,0.421997,-0.315063,1.400146,-83.312981,-119.018547,60.607906
24180,0.339355,-0.29187,1.623535,-44.677731,-25.024412,55.908199
24197,0.244385,-0.37793,1.847046,9.155273,180.664047,35.461426
24213,0.141235,-0.515015,1.739258,24.719236,305.725098,34.851074
24230,0.021484,-0.450928,1.604736,40.588375,570.251465,65.612793
24246,-0.253662,-0.29187,1.256226,38.269043,694.824158,85.754387
24263,-0.193359,-0.381714,0.742065,-47.302242,854.431091,100.83007
24279,-0.068848,-0.356934,0.397217,-233.581528,865.78363,90.087883
24296,-0.1073,-0.008789,-0.224976,-271.484375,844.055115,78.063965
24313,-0.481445,0.06543,-0.749878,-160.461426,796.935974,42.846676
24330,-0.620117,-0.03186,-1.021851,-71.350098,740.417419,-15.197753
24346,-0.561157,-0.259399,-1.84375,-66.52832,687.255798,-51.025387
24363,-0.100342,-0.607544,-2.936523,-60.852047,447.509735,-110.900871
24380,0.124634,-0.776367,-3.076904,-8.728027,26.123045,-134.216309
24397,0.049316,-0.612549,-2.212036,11.779784,-175.109848,-134.94873
24414,-0.129761,-0.286133,-1.640991,21.118162,-436.828583,-140.625
24431,-0.117188,-0.273804,-1.623291,77.087402,-611.26709,-152.770996
24447,-0.09021,-0.466797,-1.324219,110.41259,-698.303162,-152.770996
24464,-0.233521,-0.779541,-0.64624,141.784668,-841.003357,-124.877922
24481,-0.345093,-0.909058,-0.357666,201.17186,-883.605896,-47.668453
24498,-0.324463,-0.984985,0.386108,270.385742,-846.069275,-1.525879
24514,0.147095,-1.394653,0.718262,329.894989,-619.628906,75.805664
24531,0.251587,-1.48938,0.797363,216.91893,-411.254852,183.044418
24547,0.302979,-0.940918,0.985718,121.520988,-366.699188,238.281235
24564,0.494263,0.105591,1.328979,2.075195,-344.055145,262.939453
24580,0.561523,0.359009,1.525269,94.604485,-292.297363,165.039047
24596,0.518311,0.322388,1.607178,133.972168,-243.347153,109.741203
24613,0.460449,0.340332,1.587036,134.82666,-148.4375,15.930175
24629,0.375,0.349976,1.451904,119.323723,-88.439934,-46.264645
24646,0.341675,0.243652,1.312134,109.069817,-70.861816,-64.208984
24662,0.335205,0.205933,1.290527,92.468254,-25.390623,-87.951653
24679,0.293945,0.158813,1.22583,78.430176,12.512206,-103.210442
24695,0.289551,0.028931,1.063721,35.766602,106.811516,-139.282227
24712,0.295776,-0.003418,0.941528,-8.605957,199.40184,-181.945786
24728,0.322632,-0.139648,0.711792,-27.465818,239.562973,-209.045395
24745,0.317261,-0.448608,0.528076,-67.565918,313.171387,-269.714355
24762,0.299072,-0.620239,0.40918,-160.339355,369.140594,-318.725586
24778,0.238281,-0.871216,0.235596,-214.538559,381.04245,-339.111298
24795,0.309692,-1.258667,0.032837,-266.174316,369.079559,-372.192352
24811,0.402588,-1.473633,-0.046631,-282.287598,299.072266,-339.721649
24828,0.505249,-1.513062,-0.052124,-281.494141,247.375473,-300.415039
24845,0.588501,-1.355713,0.114868,-230.041489,141.479492,-193.969711
24861,0.580444,-1.265625,0.183105,-116.08886,66.589355,-64.025879
24878,0.549927,-1.077637,0.236572,-56.27441,38.635254,-17.63916
24894,0.55603,-1.003906,0.279175,38.818359,-3.295898,16.479492
24911,0.571167,-0.94751,0.359741,66.650391,-15.197753,14.587401
24928,0.587646,-0.964722,0.38916,77.453613,-22.766111,6.530761
24944,0.593506,-0.963379,0.385254,53.405758,-16.540527,9.70459
24960,0.593872,-0.91394,0.393799,40.100098,-10.681151,13.671874
24977,0.604736,-0.824219,0.379272,11.413573,5.310058,19.65332
24994,0.614014,-0.774048,0.364624,-17.456055,21.606443,21.667479
25010,0.638062,-0.694946,0.326294,-28.930662,28.808592,21.057127
25027,0.661133,-0.616089,0.302734,-41.015621,37.29248,18.371582
25044,0.671875,-0.584229,0.293457,-36.865234,34.484863,13.183593
25060,0.681274,-0.565186,0.299194,-29.296873,28.991697,9.887695
25077,0.678223,-0.579102,0.301514,-10.131835,14.648437,2.746582
25093,0.676025,-0.598267,0.299316,6.591796,1.220703,-2.746582
25110,0.647827,-0.666138,0.317017,12.145995,-4.089355,-4.211426
25126,0.636719,-0.698364,0.326538,13.427733,-10.009766,-3.967285
25143,0.624756,-0.734131,0.348267,7.690429,-12.023925,0.305176
25159,0.614868,-0.728149,0.383301,3.845215,-11.291503,2.502441
25175,0.616699,-0.722046,0.401611,-2.807617,-6.652832,4.760742
25191,0.61853,-0.71936,0.453735,-5.187988,-2.807617,5.371093
25208,0.627197,-0.725098,0.49292,-11.657714,6.958007,6.469726
25224,0.633789,-0.725708,0.502075,-20.324705,16.479492,7.93457
25241,0.636353,-0.709961,0.521729,-23.315428,20.26367,8.361816
25257,0.632202,-0.698608,0.540405,-25.390623,30.578611,9.094238
25273,0.625854,-0.700684,0.544312,-29.663084,47.912594,11.169433
25290,0.632324,-0.688354,0.513672,-31.127928,56.457516,12.08496
25306,0.638916,-0.678711,0.495239,-35.217285,67.871094,12.20703
25323,0.645508,-0.652222,0.469482,-38.757324,70.617676,10.864257
25340,0.653198,-0.637329,0.458252,-45.837399,74.462891,5.554199
25356,0.659058,-0.636841,0.446655,-54.38232,79.89502,0.305176
25373,0.672119,-0.631226,0.416748,-58.715816,82.702629,-1.281738
25389,0.683105,-0.621582,0.385742,-65.612793,87.280266,-3.417969
25406,0.690186,-0.614868,0.37439,-70.373535,88.256828,-4.760742
25423,0.689819,-0.610107,0.362427,-71.594238,87.463371,-5.615234
25440,0.685791,-0.642822,0.348999,-74.21875,88.134758,-9.277344
25456,0.691406,-0.658203,0.332397,-83.251945,93.749992,-13.061522
25473,0.707886,-0.668945,0.298096,-88.134758,96.984856,-13.427733
25489,0.727539,-0.650146,0.283325,-89.477531,100.83007,-10.864257
25506,0.736084,-0.645386,0.274902,-82.580559,99.731438,-6.958007
25522,0.745605,-0.652344,0.245605,-79.528809,97.106926,-5.798339
25539,0.750854,-0.655518,0.234619,-76.293945,90.209953,-4.577637
25556,0.755371,-0.655029,0.2146,-75.622559,84.106438,-3.662109
25572,0.761963,-0.641113,0.19397,-74.707031,81.481926,-3.051758
25589,0.764282,-0.631592,0.183716,-70.678711,76.11084,-1.708984
25605,0.769287,-0.618408,0.17395,-64.147949,70.495605,-1.464844
25622,0.772827,-0.614258,0.169312,-61.035152,67.199707,-1.281738
25639,0.774658,-0.611328,0.16394,-57.067867,58.898922,0.488281
25655,0.775269,-0.601807,0.15625,-55.969234,54.504391,1.586914
25672,0.775513,-0.599976,0.159058,-54.443356,47.912594,1.770019
25688,0.776245,-0.599243,0.162354,-53.649899,45.715328,0.183105
25705,0.784668,-0.594238,0.153442,-53.894039,45.349117,-0.061035
25721,0.80603,-0.596558,0.141968,-53.527828,42.907711,2.075195
25738,0.81189,-0.592773,0.136353,-52.856441,36.743164,6.103515
25755,0.807373,-0.581055,0.129761,-51.025387,33.26416,6.896972
25771,0.803833,-0.581299,0.130737,-46.813961,25.939939,5.493164
25788,0.80542,-0.588135,0.130615,-44.738766,20.324705,3.417969
25804,0.803833,-0.588257,0.131104,-43.640133,18.615723,2.868652
25821,0.802002,-0.588867,0.130737,-41.992184,16.784668,2.929687
25837,0.800781,-0.590088,0.133057,-39.428711,14.526366,6.469726
25854,0.797241,-0.569214,0.130981,-36.987305,12.756347,8.422852
25870,0.795044,-0.558472,0.133545,-31.555174,9.033203,10.0708
25887,0.796509,-0.534058,0.144531,-28.747557,7.263183,9.94873
25903,0.803101,-0.511108,0.157471,-23.193357,3.479004,8.972168
25920,0.80542,-0.504639,0.165161,-18.249512,-0.061035,7.751464
25936,0.807983,-0.50647,0.188843,-16.967773,-1.647949,7.141113
25953,0.82605,-0.506836,0.219238,-17.456055,-4.089355,7.324218
25970,0.832764,-0.502197,0.232422,-21.118162,-7.385253,9.70459
25986,0.838745,-0.468018,0.243408,-22.15576,-9.216309,10.31494
26003,0.84021,-0.447998,0.242432,-20.26367,-11.779784,8.361816
26019,0.84375,-0.443726,0.242432,-14.404296,-11.230468,4.211426
26036,0.84436,-0.442749,0.255737,-11.230468,-9.887695,1.89209
26052,0.84314,-0.451172,0.26355,-7.202148,-6.103515,-1.89209
26069,0.850342,-0.468628,0.270142,-5.981445,-4.150391,-1.953125
26086,0.858521,-0.46106,0.258057,-5.187988,-4.455566,-1.464844
26102,0.858398,-0.456543,0.249268,-1.831055,-7.019042,-1.770019
26119,0.859619,-0.446533,0.229858,5.981445,-11.901855,-3.784179
26136,0.859009,-0.442871,0.245483,11.108397,-15.747069,-5.187988
26152,0.853271,-0.466675,0.268677,12.756347,-21.606443,-9.216309
26169,0.842041,-0.52478,0.302856,-2.01416,-19.958496,-9.887695
26186,0.837036,-0.543091,0.30542,-10.803222,-17.822266,-8.361816
26203,0.83667,-0.539062,0.302856,-21.545408,-15.624999,-3.845215
26219,0.842529,-0.52124,0.297729,-23.132322,-15.99121,-1.220703
26236,0.845459,-0.51416,0.291016,-20.26367,-17.333984,3.784179
26252,0.847412,-0.50708,0.296387,-9.765625,-20.26367,6.713867
26269,0.85437,-0.510986,0.318848,-4.516602,-21.789549,7.446289
26286,0.865845,-0.536865,0.337158,0.549316,-23.437498,9.155273
26303,0.877686,-0.553223,0.34668,-5.798339,-25.756834,11.535644
26319,0.917725,-0.571289,0.364746,-13.305663,-29.113768,13.244628
26336,0.961792,-0.561646,0.38562,-32.775879,-42.846676,16.784668
26352,0.967773,-0.5625,0.4021,-60.668941,-63.659664,16.235352
26369,0.906128,-0.70813,0.562012,-73.608398,-72.814941,13.671874
26386,0.700684,-0.894775,1.165405,-83.618156,-27.099607,13.183593
26402,0.507568,-0.889771,1.467896,-57.983395,206.603989,9.887695
26419,0.190063,-0.788696,1.33728,-39.733887,356.323212,8.911133
26435,0.20813,-0.594482,0.836914,-43.334957,586.303711,28.747557
26452,0.341553,-0.468018,0.566284,-65.551758,690.429626,57.006832
26468,0.486206,-0.149048,0.152832,-72.814941,707.214294,63.171383
26485,0.395264,-0.035034,-0.088989,-59.570309,714.233337,57.128902
26502,0.087769,0.074097,-0.643555,-21.240232,705.62738,54.809566
26518,-0.192749,0.102905,-1.096924,26.550291,684.814392,54.809566
26535,-0.27478,0.08313,-1.234131,116.516106,593.688965,48.828121
26551,-0.315063,-0.234863,-1.503418,130.737305,527.34375,47.424313
26568,-0.205322,-0.408936,-1.889282,102.72216,354.980438,58.837887
26585,-0.116455,-0.354248,-2.099121,33.935547,113.586418,62.011715
26602,0.035645,-0.224365,-2.194214,15.380858,-31.738279,55.053707
26618,0.085571,-0.001221,-1.864624,35.339355,-315.795898,13.97705
26635,0.118042,0.040649,-1.729492,151.428223,-536.865234,-67.077637
26652,0.09082,0.04187,-1.51709,219.726547,-627.502441,-109.741203
26668,-0.071289,-0.02063,-1.150757,302.429199,-778.381287,-179.443344
26685,-0.138916,-0.232544,-0.903564,344.726532,-859.252869,-188.049301
26702,-0.29541,-0.694336,-0.378662,370.483368,-869.44574,-162.536606
26719,-0.100098,-0.609131,0.166626,385.009735,-830.444275,-86.120598
26736,0.078247,-0.66272,0.6073,268.615723,-671.325623,10.925292
26753,0.221558,-1.135376,1.028809,219.970688,-564.819336,65.368652
26769,0.189209,-0.524292,1.313477,117.126457,-403.930634,157.836914
26786,0.234619,-0.025024,1.469482,60.302731,-267.211914,119.99511
26803,0.318726,0.479492,1.735352,79.345703,-190.856918,56.823727
26819,0.355713,0.331665,1.573486,128.295898,-45.898434,-65.063477
26836,0.350464,0.121338,1.471924,113.220207,64.27002,-126.770012
26852,0.4104,-0.133667,1.148193,65.979004,116.45507,-136.901855
26869,0.505005,-0.112549,0.754028,-52.12402,210.87645,-162.719711
26886,0.536865,-0.121094,0.612183,-124.450676,281.677246,-211.486801
26902,0.548828,-0.220947,0.372803,-139.953613,312.5,-234.985336
26919,0.545044,-0.384644,0.226685,-167.968735,360.778778,-279.35791
26935,0.533203,-0.479248,0.150391,-186.157211,390.930145,-312.744141
26952,0.493164,-0.683105,0.007568,-195.739731,395.507782,-324.768036
26968,0.495239,-0.833984,-0.027466,-233.520493,367.858856,-337.646454
26985,0.543701,-1.052002,-0.092041,-235.534653,288.085937,-330.871552
27002,0.632568,-1.231079,-0.11731,-208.557114,238.403305,-315.917969
27019,0.715088,-1.384766,-0.134521,-134.94873,138.000488,-225.952133
27035,0.703125,-1.431274,-0.10083,-63.354488,55.725094,-72.20459
27052,0.459229,-1.2771,-0.011841,-35.15625,29.418943,-16.845703
27069,0.416992,-1.249512,0.018311,3.479004,2.13623,13.916015
27085,0.494751,-1.203003,0.074219,10.009766,2.441406,5.981445
27102,0.593262,-1.050903,0.055908,7.629394,6.469726,6.286621
27118,0.636963,-0.990479,0.040161,9.94873,8.300781,20.26367
27134,0.678711,-0.883301,0.03833,16.723633,3.90625,31.738279
27151,0.691406,-0.785156,0.078735,29.418943,-10.253905,49.011227
27167,0.688721,-0.741089,0.103638,29.418943,-19.592285,50.598141
27184,0.688354,-0.675171,0.106934,24.841307,-20.935057,46.020504
27200,0.68811,-0.639771,0.110596,16.174316,-19.40918,33.26416
27217,0.69165,-0.633545,0.110107,8.483887,-12.145995,21.362303
27234,0.693604,-0.645386,0.120239,4.943848,-7.690429,16.845703
27251,0.697266,-0.673096,0.118896,-2.319336,-0.610352,11.047362
27268,0.696533,-0.670776,0.116089,-4.272461,-0.854492,8.728027
27284,0.688232,-0.676758,0.120972,-3.784179,-2.502441,7.141113
27301,0.677002,-0.700317,0.143433,-4.882812,-4.638672,4.638672
27318,0.672363,-0.706421,0.150757,-10.31494,-2.807617,4.943848
27334,0.665649,-0.702026,0.142212,-13.549804,-0.305176,5.310058
27351,0.665039,-0.697266,0.135864,-15.99121,4.394531,4.089355
27367,0.665283,-0.695557,0.145874,-16.845703,9.155273,0.732422
27384,0.660156,-0.736938,0.160034,-20.1416,12.145995,-0.549316
27400,0.656494,-0.74646,0.164429,-28.686522,18.310547,-0.793457
27417,0.657593,-0.742065,0.156372,-33.508301,21.240232,-0.427246
27433,0.668701,-0.728394,0.13916,-41.137691,24.108885,1.403808
27450,0.677368,-0.713989,0.141968,-40.222164,21.545408,2.197266
27466,0.683105,-0.713257,0.171997,-38.574219,19.897461,1.708984
27483,0.68811,-0.703979,0.186035,-37.414551,18.920898,1.037598
27499,0.692383,-0.693726,0.190186,-35.095215,17.883301,0.976562
27515,0.697021,-0.689209,0.190063,-33.813477,16.906738,1.281738
27532,0.693604,-0.6875,0.192627,-31.799314,14.709472,2.197266
27548,0.68103,-0.69751,0.206055,-31.494139,14.587401,2.13623
27564,0.682373,-0.706543,0.204956,-34.973145,18.615723,1.403808
27581,0.684326,-0.706421,0.204712,-41.809078,25.695799,0.549316
27597,0.686401,-0.704102,0.197632,-45.715328,29.418943,-0.488281
27614,0.690063,-0.703125,0.197021,-52.185055,34.362793,-2.807617
27630,0.694092,-0.697021,0.197876,-55.541988,36.254883,-4.272461
27647,0.702393,-0.679199,0.201416,-55.908199,36.254883,-4.394531
27664,0.696167,-0.676392,0.201294,-55.480953,35.949707,-4.150391
27681,0.690918,-0.677734,0.198608,-56.945797,36.621094,-4.699707
27697,0.682861,-0.667847,0.187988,-57.373043,36.92627,-5.92041
27714,0.679321,-0.665649,0.182983,-56.823727,36.010742,-8.911133
27731,0.678223,-0.667847,0.18335,-55.358883,33.38623,-9.82666
27748,0.680054,-0.681885,0.18335,-55.480953,32.226562,-9.643555
27764,0.684448,-0.697998,0.171021,-60.302731,31.005857,-9.216309
27781,0.691406,-0.700684,0.164185,-66.223145,28.564451,-9.70459
27797,0.699951,-0.697021,0.173218,-67.199707,26.245115,-10.131835
27814,0.701416,-0.691162,0.185059,-65.002441,20.38574,-10.925292
27830,0.703003,-0.690674,0.211792,-62.683102,17.700195,-11.108397
27847,0.70166,-0.697266,0.237183,-57.312008,12.939452,-10.620116
27864,0.698364,-0.698608,0.247925,-51.147457,7.690429,-9.765625
27880,0.681763,-0.720947,0.270264,-48.767086,5.615234,-10.0708
27897,0.667236,-0.736084,0.297241,-46.936031,4.577637,-11.352538
27914,0.666382,-0.739014,0.307251,-49.377438,8.300781,-11.474608
27930,0.672974,-0.734253,0.318237,-50.598141,10.925292,-10.803222
27947,0.684326,-0.71521,0.31311,-49.926754,15.441894,-9.521484
27963,0.689575,-0.711182,0.309326,-45.776363,17.51709,-9.460449
27980,0.692505,-0.70874,0.307129,-43.457027,17.944336,-9.460449
27997,0.682739,-0.703979,0.309082,-40.100098,18.676758,-9.460449
28013,0.680786,-0.702637,0.30957,-39.001465,20.019531,-9.216309
28030,0.684204,-0.690186,0.304565,-39.611816,21.240232,-9.033203
28047,0.692017,-0.665649,0.292358,-40.222164,23.010252,-8.850098
28064,0.692505,-0.655762,0.292847,-38.269043,23.742674,-9.94873
28080,0.689209,-0.652344,0.289429,-37.475586,24.658201,-10.498046
28097,0.69397,-0.648804,0.282837,-36.254883,26.18408,-11.413573
28114,0.696899,-0.649658,0.283569,-36.071777,24.597166,-12.023925
28130,0.70105,-0.650513,0.28772,-36.010742,22.521971,-12.329101
28147,0.710327,-0.641602,0.276855,-34.545898,18.493652,-13.732909
28163,0.714111,-0.643433,0.271362,-31.677244,15.502929,-15.441894
28180,0.716064,-0.655029,0.270508,-29.96826,14.22119,-15.563964
28197,0.713379,-0.661377,0.274658,-26.245115,11.291503,-14.831542
28214,0.707886,-0.66687,0.285034,-23.437498,9.216309,-13.97705
28230,0.700684,-0.686523,0.298218,-23.437498,9.033203,-13.183593
28246,0.700195,-0.689819,0.301514,-24.780272,9.70459,-11.108397
28263,0.700562,-0.686279,0.305298,-25.512693,10.0708,-10.19287
28280,0.701782,-0.683472,0.30481,-24.658201,9.277344,-8.850098
28296,0.701782,-0.677246,0.304077,-20.202635,7.080078,-8.544922
28313,0.699341,-0.672485,0.30603,-17.333984,6.347656,-8.422852
28330,0.702759,-0.688599,0.309937,-13.061522,5.859375,-7.019042
28346,0.706055,-0.693115,0.313599,-12.390136,5.981445,-5.065917
28363,0.710205,-0.692505,0.315918,-13.183593,6.469726,-4.272461
28379,0.717407,-0.674316,0.314209,-14.648437,7.141113,-2.563476
28396,0.722656,-0.66394,0.312378,-12.939452,5.737304,-1.464844
28413,0.723511,-0.658447,0.316284,-11.169433,4.699707,-1.159668
28429,0.720581,-0.653198,0.321899,-7.324218,3.173828,-0.12207
28446,0.71582,-0.651123,0.323853,-4.821777,2.929687,1.281738
28462,0.703125,-0.64917,0.32605,-3.90625,2.929687,1.647949
28479,0.697876,-0.64563,0.329712,-2.868652,3.051758,1.586914
28495,0.698486,-0.647949,0.334229,-2.746582,2.624511,1.831055
28512,0.702271,-0.650391,0.344482,-3.356933,2.197266,2.502441
28528,0.702637,-0.644409,0.345581,-4.760742,1.220703,3.90625
28545,0.702881,-0.62207,0.341187,-4.211426,0.183105,4.150391
28561,0.700562,-0.61499,0.34668,-0.610352,-2.807617,3.540039
28578,0.700562,-0.619751,0.350708,3.479004,-5.371093,2.563476
28594,0.695312,-0.629639,0.357178,5.187988,-6.530761,2.624511
28611,0.695557,-0.628906,0.363037,7.751464,-10.19287,4.455566
28627,0.694946,-0.628418,0.363403,8.972168,-15.319823,7.080078
28644,0.688599,-0.629883,0.360962,8.850098,-17.578125,7.873535
28661,0.682007,-0.630127,0.350342,7.690429,-20.568846,9.155273
28677,0.682251,-0.625732,0.346191,9.399414,-21.911619,10.009766
28693,0.684814,-0.615723,0.34021,11.718749,-22.033689,9.887695
28710,0.689209,-0.621338,0.338745,17.39502,-23.010252,9.58252
28727,0.713013,-0.642334,0.349609,20.812986,-27.526854,12.390136
28743,0.755249,-0.647827,0.378296,20.324705,-31.677244,15.502929
28760,0.776367,-0.654785,0.397217,13.549804,-44.677731,24.841307
28777,0.78772,-0.669067,0.438354,-7.263183,-60.791012,32.226562
28794,0.735474,-0.695679,0.508667,-23.681639,-68.969727,31.433104
28811,0.69812,-0.752197,0.567505,-50.781246,-75.073242,23.864744
28828,0.575195,-0.774658,1.078613,-30.029295,29.907225,34.118652
28844,0.054932,-0.799316,1.518555,18.249512,178.894028,40.222164
28861,-0.277344,-0.91687,1.409546,130.004883,568.054199,70.43457
28878,-0.546387,-1.014893,1.033569,62.255856,852.844177,134.521484
28894,-0.044067,-0.760742,0.491333,-27.832029,917.846619,154.23584
28911,0.147827,-0.514893,0.036255,-118.774406,921.386658,160.03418
28928,0.085571,-0.250854,-0.996582,-66.589355,803.649841,144.714355
28945,0.049561,-0.238281,-1.952637,-48.767086,707.458435,131.774902
28961,0.13855,-0.366577,-2.270874,2.929687,443.54245,104.064934
28978,0.250366,-0.447144,-2.453125,32.226562,287.658691,97.228996
28994,0.055176,-0.19812,-2.05896,30.822752,-23.620604,76.049805
29011,-0.020386,-0.096436,-1.820923,19.65332,-266.174316,25.695799
29028,0.037476,-0.041382,-1.446655,40.466305,-355.895966,-7.507324
29045,0.274902,-0.201538,-1.271606,114.19677,-495.239227,-72.509766
29062,0.380493,-0.267578,-1.116699,168.945297,-621.887207,-112.060539
29078,0.513794,-0.387695,-0.737427,186.218246,-680.05365,-120.36132
29095,0.162964,-0.349609,-0.47937,275.085449,-780.944763,-118.041985
29112,-0.092896,-0.388184,-0.393311,460.205048,-811.340271,-108.337395
29129,-0.252441,-0.820435,-0.000366,530.517578,-788.391052,-98.022453
29146,0.125244,-1.497192,0.570801,504.760712,-643.371521,-33.38623
29162,0.273804,-1.647095,0.599731,368.164032,-444.030731,97.351067
29179,0.287476,-1.346924,0.784546,281.433105,-379.577606,153.381348
29196,0.392578,-0.422729,0.958374,113.464348,-290.100098,181.76268
29212,0.446533,-0.054077,1.037231,44.189449,-216.003403,96.618645
29229,0.397583,0.115356,1.362915,48.278805,-173.156723,34.667969
29245,0.410034,-0.078247,1.44458,43.701168,-61.889645,-65.795898
29261,0.4375,-0.117554,1.392944,-0.061035,71.105957,-100.58593
29278,0.449585,-0.096436,1.124146,-22.094725,141.784668,-112.243645
29295,0.429565,-0.183594,0.752808,-37.04834,273.55957,-153.442383
29311,0.409546,-0.278687,0.555298,-70.678711,369.567841,-201.599106
29329,0.353882,-0.420776,0.313354,-90.576164,402.832001,-225.402817
29345,0.260986,-0.60437,0.184082,-133.300781,456.909149,-281.616211
29362,0.206665,-0.775635,0.10083,-211.791977,490.53952,-331.298798
29378,0.192749,-1.151489,-0.16748,-260.131836,485.839813,-341.674774
29395,0.319458,-1.174316,-0.318359,-300.354004,406.61618,-337.95163
29412,0.393677,-1.224731,-0.381348,-225.769028,278.686523,-299.255371
29429,0.59729,-1.482544,-0.501465,-176.940903,206.787094,-245.666489
29446,0.390991,-1.418701,-0.228638,-86.914055,65.246582,-91.125481
29462,0.219849,-1.403198,-0.083862,-42.236324,-5.004883,0.12207
29479,0.120605,-1.35022,0.043701,-32.287598,-15.747069,10.375976
29495,0.173706,-1.282715,0.05603,-17.272949,-18.188477,2.441406
29512,0.324707,-1.141235,0.046265,3.417969,-22.338865,2.13623
29529,0.411743,-1.076294,0.098267,11.901855,-28.442381,9.338379
29546,0.433472,-1.057861,0.125977,16.418457,-38.391113,28.869627
29563,0.44519,-0.987915,0.144287,10.681151,-42.114254,39.306641
29579,0.440552,-0.919312,0.171265,5.92041,-41.137691,38.818359
29595,0.443848,-0.880005,0.173828,-4.821777,-31.433104,29.602049
29612,0.476685,-0.820923,0.183105,-5.92041,-24.658201,23.315428
29629,0.495483,-0.83313,0.196777,-4.760742,-10.253905,14.709472
29645,0.50354,-0.850342,0.197266,-8.422852,0.244141,13.671874
29661,0.513428,-0.851807,0.223145,-9.765625,2.13623,15.258788
29679,0.508301,-0.824585,0.230591,-13.366698,2.258301,18.432617
29695,0.503906,-0.801147,0.231812,-12.145995,0.183105,15.99121
29713,0.492676,-0.770996,0.220825,-9.887695,-0.305176,12.451171
29729,0.490967,-0.780762,0.23877,-5.310058,1.098633,4.333496
29746,0.491699,-0.793213,0.250244,-8.972168,6.408691,0.366211
29763,0.495728,-0.814575,0.265991,-13.916015,9.58252,0.610352
29779,0.50061,-0.788574,0.249756,-26.855467,15.686034,2.868652
29796,0.50708,-0.780396,0.240356,-33.14209,15.808105,1.708984
29812,0.499756,-0.768677,0.255493,-32.348633,13.610839,-0.12207
29829,0.50293,-0.794189,0.288452,-34.912109,11.840819,-5.065917
29845,0.504395,-0.804565,0.301514,-46.630856,16.296387,-6.286621
29863,0.492187,-0.795898,0.307617,-53.344723,18.615723,-5.310058
29879,0.474854,-0.776001,0.291138,-60.913082,19.775391,-3.173828
29896,0.465332,-0.779907,0.287964,-61.95068,15.99121,-4.760742
29913,0.463013,-0.796143,0.315308,-61.096188,13.610839,-7.141113
29930,0.478394,-0.801025,0.342163,-62.805172,11.96289,-11.230468
29947,0.483032,-0.800659,0.346069,-66.955566,13.916015,-10.375976
29964,0.487061,-0.782959,0.339355,-68.54248,15.747069,-8.483887
29980,0.47937,-0.7771,0.314575,-69.519043,17.272949,-6.408691
29997,0.473022,-0.776611,0.307861,-64.453125,13.244628,-9.521484
30014,0.470459,-0.775269,0.30957,-60.852047,10.19287,-12.634276
30031,0.471558,-0.786255,0.330078,-54.992672,5.004883,-18.981934
30048,0.470703,-0.798706,0.343994,-54.565426,1.89209,-20.38574
30064,0.462891,-0.810547,0.362305,-56.213375,0.366211,-18.859863
30081,0.449341,-0.785645,0.361572,-60.363766,-1.647949,-14.587401
30097,0.436157,-0.771362,0.36084,-58.410641,-3.540039,-14.038085
30114,0.412842,-0.75769,0.369019,-54.443356,-4.882812,-15.99121
30131,0.394409,-0.776001,0.390869,-48.400875,-7.568359,-22.27783
30147,0.395508,-0.783936,0.408813,-46.56982,-9.033203,-27.648924
30164,0.396851,-0.791016,0.43335,-48.522945,-8.544922,-28.869627
30181,0.395386,-0.775513,0.443237,-51.025387,-8.300781,-29.174803
30197,0.389771,-0.766968,0.452881,-49.377438,-11.291503,-29.663084
30214,0.375732,-0.771362,0.491699,-48.095699,-13.97705,-31.066893
30231,0.373779,-0.782593,0.524536,-48.21777,-18.676758,-33.996582
30248,0.370483,-0.780273,0.532471,-52.307125,-19.104004,-33.874512
30264,0.360962,-0.755371,0.541626,-53.649899,-18.005371,-33.325195
30281,0.349243,-0.739136,0.556274,-50.048824,-15.747069,-34.790039
30298,0.347412,-0.740112,0.568604,-40.771481,-16.418457,-38.574219
30314,0.342529,-0.746338,0.582153,-36.560059,-17.456055,-39.733887
30331,0.331787,-0.773437,0.584351,-32.897949,-20.202635,-39.245605
30348,0.30542,-0.813721,0.592041,-32.897949,-23.498533,-36.743164
30364,0.296387,-0.809692,0.605347,-33.874512,-23.864744,-35.217285
30381,0.294067,-0.808838,0.610962,-36.376953,-21.240232,-31.127928
30398,0.275269,-0.83374,0.632446,-38.391113,-16.357422,-27.099607
30414,0.26416,-0.843872,0.646606,-41.015621,-13.305663,-25.512693
30431,0.265869,-0.833252,0.640747,-48.583981,-7.080078,-22.216795
30448,0.273193,-0.792603,0.62085,-49.194332,-6.04248,-20.629881
30464,0.281372,-0.755493,0.629517,-40.100098,-7.690429,-19.226074
30481,0.279785,-0.765259,0.637817,-30.456541,-10.009766,-19.165039
30497,0.2677,-0.790039,0.65686,-27.221678,-11.413573,-18.493652
30514,0.260986,-0.803467,0.667847,-25.756834,-13.122558,-15.808105
30531,0.261597,-0.796387,0.662598,-28.808592,-11.96289,-12.023925
30548,0.259399,-0.763306,0.658203,-28.503416,-11.413573,-10.803222
30565,0.251953,-0.737061,0.672485,-22.033689,-11.230468,-10.925292
30582,0.249878,-0.736328,0.679077,-14.343261,-10.681151,-11.352538
30598,0.237061,-0.749878,0.693604,-11.108397,-10.498046,-10.803222
30615,0.221069,-0.756592,0.712524,-5.859375,-10.253905,-8.666992
30632,0.212402,-0.757202,0.719727,-5.004883,-7.263183,-6.04248
30648,0.201172,-0.752686,0.711914,-6.591796,-4.516602,-5.249023
30665,0.206909,-0.726318,0.70813,-8.911133,0.061035,-4.943848
30682,0.206909,-0.717896,0.708252,-9.216309,3.784179,-5.859375
30699,0.203735,-0.720581,0.704224,-9.338379,5.859375,-6.713867
30716,0.21228,-0.720215,0.688599,-11.169433,9.58252,-7.507324
30732,0.219971,-0.710205,0.685059,-11.474608,8.361816,-5.065917
30748,0.231934,-0.670166,0.689331,-8.850098,5.798339,-3.417969
30765,0.228027,-0.655762,0.693237,0.305176,0.305176,-2.13623
30782,0.223267,-0.662842,0.695435,7.263183,-1.89209,-4.272461
30798,0.214355,-0.695801,0.697144,7.446289,-1.586914,-4.760742
30815,0.212158,-0.706543,0.702759,3.784179,-0.732422,-2.990722
30831,0.213989,-0.702759,0.706543,-1.586914,-2.197266,-1.342773
30848,0.223755,-0.685059,0.707031,-3.662109,-3.540039,-0.976562
30864,0.22876,-0.675049,0.706909,-3.784179,-7.202148,0.549316
30881,0.235352,-0.663452,0.696289,0.976562,-11.535644,2.13623
30898,0.237793,-0.656372,0.698486,4.455566,-13.732909,2.807617
30915,0.240112,-0.654297,0.705811,10.925292,-18.066406,4.455566
30931,0.248413,-0.675781,0.717041,12.756347,-19.775391,5.981445
30947,0.24707,-0.715454,0.734619,12.023925,-22.644041,10.925292
30963,0.244507,-0.741943,0.750977,2.990722,-25.817869,18.676758
30980,0.221924,-0.832153,0.825684,-5.126953,-27.465818,25.207518
