ax,ay,az,gx,gy,gz,label
0.6301481542330214,0.1888612792837697,1.2833285943607855,-0.0151433960038217,0.0158931269971765,-0.1757256733896736,5
0.6438867003183186,0.1810907800790768,1.306000010270295,-0.016325086271208,0.0158931269971765,-0.1753200176640545,5
0.6471758987868765,0.1810907800790768,1.3051217754506597,-0.0189838833225824,0.010704651377358,-0.1741030704257118,5
0.6481428438788381,0.1900890818095381,1.2986199583269316,-0.017802197895392,0.0087931081989095,-0.1728861165411976,5
0.6489163999524075,0.1947909122185859,1.2901831451415804,-0.0121891775956497,0.005243098799776,-0.168423970021103,5
0.651432042347396,0.1933604301490003,1.2887779694301635,-0.0071670000095026,0.0016930894006425,-0.1672070161365889,5
0.6585921914955775,0.1857942855256768,1.2908857329972887,-0.0074624213663002,-0.0002184537778058,-0.1668013670571413,5
0.6593657475691468,0.1851812217815687,1.2966864019945208,-0.0169159289848032,-0.0015838430407274,-0.1651787707393511,5
0.6578186354220081,0.1947909122185859,1.298442871633792,-0.0313916141894533,0.0008738540532479,-0.1623392138908752,5
0.656269938118981,0.2193285373208807,1.305648716342441,-0.0328687209734414,0.0011469310110113,-0.1627448696164942,5
0.6589789695323621,0.2273017160693906,1.3163703797880573,-0.0237106395519319,-0.0024030783881221,-0.168423970021103,5
0.6545278517975617,0.2113536835348184,1.3204116996875932,-0.0118937562388521,-0.0081377079234675,-0.1769426206280162,5
0.6504650972554344,0.1954039759626941,1.322345256020004,-0.0080532689200913,-0.0092300157545213,-0.182621721032625,5
0.6448536454102802,0.1751611471442606,1.3205873466515203,-0.0118937562388521,-0.006226164745019,-0.1822160719531775,5
0.6456272014838494,0.1880438609582922,1.318655230048322,-0.025778593889711,0.0011469310110113,-0.1769426206280162,5
0.6489163999524075,0.1992900630838166,1.3163703797880573,-0.028732812297883,0.0041507864946179,-0.1741030704257118,5
0.6533675176872078,0.2138076135488031,1.3146124704195736,-0.0243014822655271,0.0041507864946179,-0.1757256733896736,5
0.6506584862738268,0.2076736260326175,1.305824363306368,-0.0151433960038217,0.0063354066308298,-0.1814047737942824,5
0.6496915411818652,0.2007205451534021,1.2979159307420107,-0.0121891775956497,0.0068815650204611,-0.1818104228737299,5
0.6518188203841808,0.1947909122185859,1.2866687661338256,-0.0133708630228401,0.0044238634523814,-0.1809991247148348,5
0.6487230109340152,0.1872264426328147,1.2901831451415804,-0.0172113503416009,-0.0034953862191759,-0.1822160719531775,5
0.6464023427133072,0.1831360009303228,1.2914141136182826,-0.0254831725329134,-0.0054069293976243,-0.1814047737942824,5
0.6442734783551033,0.1835447100930615,1.2900074981776533,-0.0343458325976253,-0.0048607754820974,-0.1745087195051594,5
0.6427247810520762,0.2054240506000022,1.2907100860333616,-0.0346412539544229,-0.0051338524398609,-0.1720748183823025,5
0.6446602563918878,0.2093084626835725,1.287195707025607,-0.0281419695842878,-0.0040415446088071,-0.1757256733896736,5
0.6496915411818652,0.2035831843301256,1.2861418252420442,-0.0260740152465087,-0.0073184725760728,-0.1814047737942824,5
0.6537542957239925,0.1947909122185859,1.2877226479173882,-0.0284373909410854,-0.0119607942803644,-0.1822160719531775,5
0.6545278517975617,0.1898830521906165,1.3010804555511235,-0.0340504112408277,-0.020426202341553,-0.1818104228737299,5
0.6518188203841808,0.193769139311739,1.3214670212003683,-0.0349366753112206,-0.0206992792993164,-0.1805934689892157,5
0.6496915411818652,0.193769139311739,1.3311333631332094,-0.0293236598516742,-0.0152377267217345,-0.1793765217508731,5
0.6493047631450806,0.1915195638791237,1.334823389104891,-0.0243014822655271,-0.0067723186605459,-0.1777539187869113,5
0.6506584862738268,0.1896786976092471,1.326036721720898,-0.0243014822655271,-0.0037684631769393,-0.1773482697074638,5
0.6479494548604459,0.1900890818095381,1.3246301062802688,-0.0254831725329134,-0.0034953862191759,-0.1777539187869113,5
0.6477560658420536,0.1892699884465084,1.3241031653884876,-0.0248923249791223,-0.0054069293976243,-0.178565223591978,5
0.6475626768236611,0.1902934363909075,1.3251570471720502,-0.0237106395519319,-0.0051338524398609,-0.1797821708303206,5
0.6417578359601146,0.1892699884465084,1.3263880156487524,-0.0210518376603616,-0.0024030783881221,-0.1797821708303206,5
0.6429181700704685,0.1882482155396616,1.3246301062802688,-0.0183930406089872,0.0016930894006425,-0.1793765217508731,5
0.6510452643106114,0.1843638034560912,1.3179512024634013,-0.0166205076280056,0.0041507864946179,-0.1801878199097682,5
0.6524005725952462,0.1819098734421066,1.3156663522031362,-0.0145525532902265,0.0063354066308298,-0.1797821708303206,5
0.6520137945584615,0.1847725126188299,1.3142611764917194,-0.0175067716983985,0.005243098799776,-0.174914368584607,5
0.6483362328972305,0.1866117038511544,1.3096914759711895,-0.0198701522331711,0.0049700173679083,-0.1736974213462643,5
0.6469825097684841,0.1964274239070931,1.3075822726748516,-0.0245969036223247,0.005243098799776,-0.1724804674617501,5
0.6473692878052689,0.2019483476791707,1.3067040378552162,-0.0240060609087295,0.0055161757575395,-0.171669169302855,5
0.6465957317316995,0.2015379634788797,1.305473069378514,-0.0186884619657848,0.0066084835885933,-0.1728861165411976,5
0.6487230109340152,0.2033788297487562,1.3012561025150506,-0.0160296649144104,0.0066084835885933,-0.1736974213462643,5
0.6496915411818652,0.1921326276232318,1.29932254618264,-0.0145525532902265,0.0060623296730664,-0.1736974213462643,5
0.6498849302002575,0.1921326276232318,1.297037695922375,-0.0225289492845455,0.0066084835885933,-0.1708578711439599,5
0.6493047631450806,0.2103319106279716,1.2954554335178188,-0.0251877463359199,0.0057892527153029,-0.171669169302855,5
0.6483362328972305,0.217487671051004,1.2972133428863024,-0.0245969036223247,0.0033315556213276,-0.1753200176640545,5
0.6464023427133072,0.2176920256323735,1.300376427966203,-0.0154388173606193,0.0049700173679083,-0.1814047737942824,5
0.6498849302002575,0.2046066322745247,1.3051217754506597,-0.009825797060877,0.0068815650204611,-0.1846499730760343,5
0.6525939616136385,0.1915195638791237,1.3031882191182491,-0.0074624213663002,0.0085200312411461,-0.1870838741988912,5
0.6566567161557657,0.1823185826048453,1.2979159307420107,-0.0124845989524473,0.0082469498092783,-0.1866782251194436,5
0.6549162149902349,0.1833403555116921,1.2961594611027396,-0.0216426852141527,0.005243098799776,-0.1842443239965868,5
0.6531741286688154,0.1902934363909075,1.2966864019945208,-0.0216426852141527,-0.001310766082964,-0.1801878199097682,5
0.6531741286688154,0.200107481409294,1.3005520749301298,-0.0180976192521896,-0.0032223092614124,-0.1809991247148348,5
0.6585921914955775,0.1913152092977544,1.299146899218713,-0.0160296649144104,-0.0024030783881221,-0.185866920314377,5
0.6589789695323621,0.1888612792837697,1.2986199583269316,-0.0201655735899688,-0.0018569199984908,-0.185866920314377,5
0.6578186354220081,0.1849768672001993,1.297388989850229,-0.0204609949467664,-0.0037684631769393,-0.1850556221554819,5
0.6580120244404005,0.1849768672001993,1.2959823744096,-0.020756416303564,-0.0092300157545213,-0.1830273701120726,5
0.6553029930270194,0.1845681580374606,1.298267224669865,-0.0216426852141527,-0.0114146403648375,-0.1830273701120726,5
0.6547228259718425,0.178434170521275,1.30389224670317,-0.0237106395519319,-0.0135992605010494,-0.1838386749171392,5
0.6533675176872078,0.1782281409023534,1.3021343373346863,-0.0269602793169015,-0.0125069481958913,-0.182621721032625,5
0.6489163999524075,0.1800690071722299,1.2942259047703288,-0.0278465482274902,-0.0111415634070741,-0.1818104228737299,5
0.6469825097684841,0.169027159628075,1.2987956052908587,-0.0248923249791223,-0.0075915495338363,-0.1797821708303206,5
0.6518188203841808,0.1682097413025975,1.3042435406310242,-0.0245969036223247,-0.0086838618389944,-0.1765369715485687,5
0.6535609067056001,0.1761845950886596,1.3096914759711895,-0.0254831725329134,-0.011687717322601,-0.1757256733896736,5
0.6471758987868765,0.1800690071722299,1.3114493853396731,-0.0243014822655271,-0.0155108036794979,-0.174914368584607,5
0.6442734783551033,0.1767976588327678,1.313909882563865,-0.0225289492845455,-0.0108684819752063,-0.174914368584607,5
0.6384686374915566,0.1710723804793209,1.3251570471720502,-0.0228243706413431,-0.0054069293976243,-0.1745087195051594,5
0.6460139795206341,0.1767976588327678,1.3212913742364414,-0.0248923249791223,0.0063354066308298,-0.1696409172594457,5
0.6487230109340152,0.1835447100930615,1.313558588636011,-0.0234152133549384,0.0087931081989095,-0.1680183209416555,5
0.6549162149902349,0.1919282730418624,1.3028369251903948,-0.0186884619657848,0.0055161757575395,-0.1688296191005506,5
0.6527873506320309,0.1857942855256768,1.3040678936670969,-0.0089395329904842,-0.0024030783881221,-0.1720748183823025,5
0.6421446139968991,0.1688228050467056,1.3147881173835008,-0.0183930406089872,-0.0024030783881221,-0.1712635202234074,5
0.6398223606203028,0.1806820709163381,1.3212913742364414,-0.0251877463359199,5.4623179957571646e-05,-0.1692352681799981,5
0.6427247810520762,0.1886569247024003,1.320060405759739,-0.0266648579601039,0.0082469498092783,-0.1672070161365889,5
0.6483362328972305,0.2007205451534021,1.3205873466515203,-0.0213472590171592,0.0104315699454902,-0.1680183209416555,5
0.6512386533290038,0.1996987722465553,1.3255083410999045,-0.0089395329904842,0.0085200312411461,-0.1712635202234074,5
0.6489163999524075,0.1894743430278777,1.326036721720898,-0.005394467028521,0.0077007958937514,-0.1741030704257118,5
0.6456272014838494,0.1708680258979515,1.324805753244196,-0.0089395329904842,0.0093392621144364,-0.1753200176640545,5
0.6549162149902349,0.1718897988047983,1.3242788123524143,-0.0157342387174169,0.0117969592084118,-0.174914368584607,5
0.6591723585507544,0.1757758859259209,1.3212913742364414,-0.0136662892198336,0.0066084835885933,-0.1724804674617501,5
0.6560765491005888,0.1866117038511544,1.3219939620921497,-0.008348690276889,0.0022392433161694,-0.1724804674617501,5
0.6500783192186498,0.1835447100930615,1.3183024963912555,0.0102629036033194,-0.0026761553458855,-0.174914368584607,5
0.6522071835768538,0.1780237863209841,1.3119763262314543,0.0288744926433319,0.0008738540532479,-0.1757256733896736,5
0.6556897710638041,0.1657558112886127,1.3095158290072624,0.0365554672808534,0.0030584741894598,-0.174914368584607,5
0.6516254313657884,0.1203639686613286,1.3246301062802688,0.0445318681153684,0.0093392621144364,-0.1676126718622079,5
0.6508518752922192,0.1099351848612817,1.3284957792158778,0.0253294266813688,0.0254508428894188,-0.1603109684936374,5
0.6597525256059313,0.1256788628144846,1.3204116996875932,0.0155805025462641,0.0336431739928439,-0.1631505186959418,5
0.6723307375808746,0.1254745082331153,1.3119763262314543,0.009081213335933,0.0429278129273228,-0.1724804674617501,5
0.674652990957471,0.1260892470147756,1.3084605074944873,0.0173530355272456,0.044839351631667,-0.1732917722668167,5
0.6748463799758633,0.1199535844610377,1.303363866082176,0.024443162610976,0.0451124330635347,-0.1708578711439599,5
0.677362022370852,0.1168865907029449,1.2989712522547858,0.0380325789050373,0.0467508992842198,-0.164773115013732,5
0.683360252252791,0.1056420636149727,1.2961594611027396,0.0412822235102028,0.0483893610308005,-0.1619335648114276,5
0.6866494507213489,0.106868191103189,1.2900074981776533,0.0371463148346445,0.0524855288195652,-0.157471418291333,5
0.6872296177765259,0.1107526031867593,1.282274712577223,0.029465340197123,0.0576740044393837,-0.1542262123634095,5
0.6899386491899068,0.1181143932287134,1.261712499964051,0.0303516042675159,0.0606778599229903,-0.1526036160456193,5
0.6949699339798842,0.1211813869868061,1.2541553613275478,0.0427593351343868,0.0647740232376507,-0.1465188599153914,5
0.6947765449614919,0.120568323242698,1.2567915055156669,0.0687564822953191,0.0691432635100745,-0.1375945602290307,5
0.6945831559430995,0.1138195969448521,1.2601302375594945,0.0838230005331726,0.0737855896884704,-0.1335380627883836,5
0.7029036392016348,0.1009385581683727,1.2511679232115744,0.1059796603753442,0.0833433055807128,-0.1286702605426699,5
0.7476018649444768,0.0786505084986933,1.2351739713897198,0.1074567719995281,0.0858010071487925,-0.1266420084992606,5
0.7938487879903458,0.0853992347965392,1.2385127034335477,0.0977078430242275,0.0836163870125806,-0.1148781519644239,5
0.8131987859207974,0.1007342035870033,1.2480033984024614,0.0950490411326572,0.076789445172077,-0.0990578046351117,5
0.8491897503683195,0.1465364304145784,1.2764754833092031,0.103911706037565,0.0762432867824458,-0.0945956514688455,5
0.8786023178787258,0.1737306650746749,1.2678630231599248,0.1429074364593552,0.0931740939566142,-0.0958126053533597,5
0.8900186105874266,0.1678010321398587,1.2483546923303157,0.1931291735992587,0.1142010733936517,-0.1165007549283856,5
0.9215600424560368,0.1056420636149727,1.207581561031826,0.2067185898933201,0.1199357029289971,-0.1270476575787081,5
0.9382010089731072,0.0661781788849526,1.1871949953825816,0.1895841076372956,0.1259434138962103,-0.1339437118678312,5
0.9722564980808176,0.0256925212480857,1.1444883077516812,0.1328630812870611,0.1297665002531073,-0.1254250612609179,5
1.0082474625283395,0.0134245462157145,1.1028355019043437,0.1000712187188043,0.1292203463375804,-0.1185290003256234,5
1.019276977200256,0.0119923891085767,1.0947514223760593,0.0498494622181171,0.1163856935298636,-0.1079821043214725,5
1.0446252050126466,0.0355065662664723,1.0972119196002512,0.0406913807966076,0.1040971991117782,-0.1059538589242347,5
1.0481077924995967,0.034280438778256,1.1107439344687011,0.0507357311287059,0.0707817342048638,-0.105142554119168,5
1.0438516489390772,0.0199672428946389,1.12251947969788,0.0669839493143375,0.040197038875584,-0.1104159987981577,5
1.0262437373300453,-0.0241984722444289,1.1413252226717807,0.0675747968681286,0.0339162509506074,-0.1132555490004622,5
1.009021018601909,-0.0638667115558183,1.1399186072311511,0.0507357311287059,0.0388316496126624,-0.1128498999210146,5
0.994122138406258,-0.1266387438248125,1.1288470895868936,0.0223752082731968,0.0426547359695594,-0.105142554119168,5
0.9917998850296617,-0.1303204763645657,1.1228707736257342,0.0114445938707057,0.041835505096269,-0.0978408507505975,5
0.988123908524319,-0.1209134654713656,1.1233977145175156,0.006126994927761,0.0330970156032127,-0.0905391540281985,5
0.9664516572172712,-0.1209134654713656,1.1327127625225024,0.0146942384758712,0.0254508428894188,-0.0950013005482931,5
0.959484897087482,-0.1278665463505809,1.129725324406529,0.0465998224531475,0.0109777283351214,-0.1083877600470915,5
0.9546485864717856,-0.12418648884838,1.118653806762271,0.0870726451383381,0.0066084835885933,-0.1152838010438715,5
0.928331828411545,-0.1571060018619235,1.1019572670847082,0.1059796603753442,0.0055161757575395,-0.1238024582969562,5
0.9047241017646854,-0.2004542986755138,1.1165446034659334,0.1189782339558103,-0.0144184913743398,-0.1562544644068188,5
0.8907921666609959,-0.2137440466147319,1.1341193779631318,0.1021391730565834,-0.0501916623234381,-0.1915460273651573,5
0.8551879802502584,-0.2382816717170267,1.1778799473775947,0.0917994013676876,-0.0632993920889183,-0.2045268311383367,5
0.8553813692686506,-0.253207931344752,1.2056480046994154,0.0764374472524487,-0.069853252497554,-0.2102059315429455,5
0.8627349074352244,-0.2487087804795213,1.2009026572149586,0.0796870918576142,-0.0392685616423785,-0.2146680780630401,5
0.8762800645021294,-0.2609784305494448,1.1638209916173634,0.0885497567625221,-0.0179685007734733,-0.2296771338796287,5
0.8677661922252018,-0.3480837333393642,1.1100413466129928,0.1018437516997858,0.0082469498092783,-0.2722703935603663,5
0.8433849095047727,-0.4081974810130043,1.0877212246313372,0.0776191375198351,0.0158931269971765,-0.2880907541820215,5
0.8224877994271828,-0.430076821519945,1.0557347607168408,0.0619617765683863,0.0098854160299633,-0.2840342500952029,5
0.8760866754837371,-0.3366331766324705,1.0696195092423575,0.0731878074874791,-0.0419993356941173,-0.2564500395848825,5
0.8985324828643542,-0.2881726652095414,1.101781620120781,0.1417257461919689,-0.1277457107147436,-0.2231867286699533,5
0.9060794100493202,-0.2390990900425041,1.1462462171201648,0.1765855388970253,-0.1618804288654699,-0.2223754305110581,5
0.8611877952880859,-0.2607724009305232,1.133415350378211,0.2188308994033934,-0.1845458566267751,-0.2515822373391688,5
0.8389337917699725,-0.3018727973490505,1.1228707736257342,0.2025826812177617,-0.1654304382646034,-0.2824116471312412,5
0.8327421728696414,-0.3857050767619556,1.0817463483993903,0.1745175797190503,-0.1520496315413598,-0.2909303043843259,5
0.8424179644128111,-0.4065626443620494,0.9982650897407884,0.1018437516997858,-0.1247418597052414,-0.2998546040706867,5
0.8385470137331879,-0.39695127888748,0.960128102630418,0.0601892435874048,-0.1203726149587132,-0.2982320077528965,5
0.8290661963642988,-0.3499229245716887,0.9349961894967164,0.0613709290145952,-0.1318418785035083,-0.2860625021386123,5
0.8290661963642988,-0.2707924755678315,0.91074251118265,0.0991849498082155,-0.1610611935180752,-0.2523935354980639,5
0.8137789529759744,-0.2928761706561414,0.905645869770339,0.1417257461919689,-0.1908266445517517,-0.2321110350024856,5
0.734445071070245,-0.4456161448917785,0.9258567884556568,0.1396577918541897,-0.2091228454629461,-0.2304884386846954,5
0.6702018732226707,-0.5253596576397438,0.9464204407980408,0.0681656395817239,-0.2309690602473782,-0.2195358803087538,5
0.6465957317316995,-0.5100246888492799,0.9399171839451004,-0.0461627159107051,-0.2170420996086077,-0.1854612712349294,5
0.6142807437895201,-0.3758910317435689,0.9100399233269416,-0.0765911931039934,-0.1902804861621205,-0.1720748183823025,5
0.606733816604554,-0.2440069500704735,0.8812179842215582,-0.0408451169677605,-0.1801766297766643,-0.1765369715485687,5
0.6088626809627582,-0.2237641212520402,0.8840297753736044,0.0885497567625221,-0.1872766351526182,-0.1862725693938245,5
0.6125386574681007,-0.2814256139492476,0.9327113392364514,0.1777672243242158,-0.2544537367783911,-0.178565223591978,5
0.5947373568406763,-0.3411306524601489,0.9847330748723384,0.1739267370054551,-0.2951423242859619,-0.1704522220645123,5
0.5852549543158986,-0.328453968265039,0.9931684483284772,0.0888451781193197,-0.3355578169393517,-0.1392171631929924,5
0.5403633395546642,-0.2830604506002027,1.0174221266425434,-0.0130754416660425,-0.3148039144600777,-0.1213685571740993,5
0.4906338290218449,-0.2119048553824075,1.0339430193561792,-0.044094761572926,-0.2850384365817752,-0.1375945602290307,5
0.4498049688027378,-0.2480957167354132,1.01443468852657,-0.0361183655786069,-0.2107613116836311,-0.2061494274561269,5
0.4441935169575835,-0.2846969622887099,1.0068775498900668,0.0401005332428165,-0.1626996597387603,-0.2503652834546547,5
0.4685747996780123,-0.3636230567111976,0.9961573261736631,0.0799825132144118,-0.1531419438465179,-0.2442805339705983,5
0.4916007741138065,-0.4041087143480646,0.9970355609932988,0.1290225939683003,-0.1646112029172088,-0.1984420750081088,5
0.4937296384720105,-0.5038907013330941,1.014785982454424,0.1056842390185465,-0.2072113022844976,-0.1521979669661717,5
0.4325838352304902,-0.5826124411742126,1.0509894132323838,0.0649159949765584,-0.2208651859655047,-0.1266420084992606,5
0.3948507844615488,-0.5795454474161199,1.0560874943739076,-0.0308007666356622,-0.2126728548620796,-0.0629549368717065,5
0.3516996708658453,-0.5177951880539726,1.0420270988844638,-0.0597521322047665,-0.1793573989033739,-0.0232012406856165,5
0.3600201541243806,-0.4746512458217515,0.9972112079572256,-0.03966343154057,-0.1624265827809968,-0.0150882391581508,5
0.3671803032725619,-0.4795591058497209,0.9713767069678156,0.024443162610976,-0.1411265174379873,0.0133072695110646,5
0.4027844896832994,-0.5036863467517249,0.9641708622591666,0.0560533349118464,-0.1422188297431454,0.0388632412703188,5
0.4389688431492138,-0.5177951880539726,1.007404490781848,0.0761420258956511,-0.1815420011431685,0.1094463339561382,5
0.4283261065140822,-0.4967349409100617,1.0383356331835694,0.0067178376413563,-0.239161386876699,0.1739447037425874,5
0.3820791834682132,-0.3777318980134456,1.0787589102834172,-0.0408451169677605,-0.2530883475154695,0.1926046145665471,5
0.3429924095705254,-0.2397121537866122,1.0845581395514368,-0.0916577210222387,-0.2345190696465117,0.1865198584363192,5
0.3381560989548289,-0.1959551478102832,1.073837915835033,-0.0553208021724105,-0.1725304570628704,0.1350022924230494,5
0.3497657806819221,-0.1820506610894048,1.0277910564310928,-0.0204609949467664,-0.1411265174379873,0.1090406848766907,5
0.3876922204692559,-0.2043387107590841,0.9943994168051796,0.0575304416958345,-0.1067187312777061,0.0851073559584274,5
0.4031712677200841,-0.2329651025263185,0.984381780944484,0.1068659292859329,-0.1168226055595797,0.0879469061607318,5
0.415556090676635,-0.3108694240419596,0.9685634760865568,0.0917994013676876,-0.1332072677664299,0.0940316357062736,5
0.4109115839234424,-0.3235461082370695,0.9453651192852658,-0.0042127767611347,-0.1670689044852885,0.1049841874360436,5
0.4124602812264694,-0.2981910648092973,0.9390389491254648,-0.0848630104551101,-0.1859112458896967,0.1264836418161362,5
0.4120719180337963,-0.2298981087682257,0.927439050860213,-0.0952027821440059,-0.1872766351526182,0.143115293950515,5
0.4056869101150728,-0.1975916594987904,0.9225180564118288,-0.0594567108479689,-0.1796304758611374,0.1589356545721703,5
0.4033646567384764,-0.2094509253684229,0.9256811414917294,0.0126262841380921,-0.1741689232835554,0.1508226463985331,5
0.3855633561110519,-0.274881242232771,0.9179483558912992,0.036850888637651,-0.1749881541568458,0.1483887452756762,5
0.3602151282986615,-0.3288626774277776,0.9070524852109684,0.0409868021534052,-0.1845458566267751,0.1483887452756762,5
0.3513128928290607,-0.3419480707856265,0.9074037791388224,0.0132171268516873,-0.2044805237586545,0.1492000500807429,5
0.3366074016518018,-0.3476733491390734,0.9212885276643392,0.0008093959848164,-0.214584398040528,0.1483887452756762,5
0.3371875687069788,-0.3738458108923231,0.9390389491254648,-0.0045081981179323,-0.2274190508482448,0.135813597228116,5
0.3335115922016363,-0.3908172913712943,0.9492322319500872,0.0087857919791354,-0.2380690790456452,0.1313514440618499,5
0.3182243488133119,-0.4204654560453756,0.9699700915271864,0.0188301471514296,-0.2418921654025422,0.1362192463075636,5
0.3265448320718472,-0.4582928290868885,1.0012539675859742,0.033896670229479,-0.251176804337021,0.1386531474304204,5
0.3356404565598402,-0.4758773733099679,1.021640533235219,0.0333058275158838,-0.2713845529007682,0.1398700946687631,5
0.364471271859181,-0.4820130358637057,1.0603044612373709,0.0259202742351599,-0.2806691918352471,0.1508226463985331,5
0.4035580457568687,-0.4263950889801918,1.0815707014354634,-0.0015539797097603,-0.2833999703610902,0.184897262118529,5
0.4198122342371547,-0.3783449617575537,1.0803397329587612,-0.017802197895392,-0.2615537555766581,0.220188818430696,5
0.4213609315401816,-0.2812212593678783,1.047826328152483,-0.0145525532902265,-0.2399806222240937,0.2299244229221233,5
0.4072356074180998,-0.2507540013307673,1.0270884685753845,-0.0071670000095026,-0.1919189523828056,0.2068023655780691,5
0.3776296508893013,-0.2583201459540907,0.9870179251326032,-0.0263694366033063,-0.1657035152223669,0.1313514440618499,5
0.3569243446742151,-0.3278409045209308,0.9617103650349744,-0.0417313858783492,-0.1635188950861549,0.0920033836628643,5
0.3565375666374303,-0.3654622479435221,0.9652247440427292,-0.0591612894911713,-0.1864573998052236,0.0380519431114237,5
0.3814990164130362,-0.4355977452920225,1.0056465814133646,-0.0567979137965945,-0.2077574562000245,0.0242598278870062,5
0.4027844896832994,-0.4679041945614579,1.061007049093079,-0.0387771626299813,-0.2427113962758325,0.0218259267641494,5
0.4076223854548844,-0.4642224620217047,1.082448936255099,-0.0186884619657848,-0.2473537179801241,0.0392688903497664,5
0.4308417489090709,-0.4372325819429774,1.0856120213349996,-0.0145525532902265,-0.2364306128249602,0.0490044948411938,5
0.4469025483709644,-0.405947905580389,1.0599531673095164,-0.017802197895392,-0.1960151201715702,0.0627965967732682,5
0.4612212615114386,-0.3814119555156465,1.0494085905570398,-0.0278465482274902,-0.1654304382646034,0.0729378503441432,5
0.464123681943212,-0.3345879557812246,1.0383356331835694,-0.0343458325976253,-0.1572381071611783,0.0733434994235907,5
0.4432265718656218,-0.3255913290883155,1.0553834667889863,-0.0476398275348891,-0.1446765357853294,0.0656361469755726,5
0.4354862556622635,-0.322115626167484,1.0724313003944037,-0.0647743097909136,-0.1394880512173022,0.0567118472892119,5
0.4149743384655696,-0.2912396589676342,1.1091631117933571,-0.075409502836607,-0.1397611281750657,0.0514383959640507,5
0.3745338414391356,-0.2525948676006438,1.1474757458676546,-0.0978615840355762,-0.1433111375741992,0.0319671803350243,5
0.3604085173170537,-0.2464608800844582,1.1671597236611908,-0.1120418478834287,-0.1353918879026418,0.0072225200270083,5
0.3534417571872648,-0.2288763358613788,1.1898311395707006,-0.1170640254695758,-0.1236495474000832,-0.0065695819050661,5
0.3526682011136954,-0.1875715848614822,1.2005513632871043,-0.1037700256921161,-0.0930648520708034,-0.0406441909788904,5
0.3565375666374303,-0.185323684466419,1.1993218345396146,-0.0467535634644963,-0.0553801379432566,-0.0889165510642367,5
0.3737587002096779,-0.2223319641449022,1.1736629805141314,-0.0142571319334289,-0.0351723938536138,-0.1120386017621195,5
0.3880789985060405,-0.281629968530617,1.129198383514748,0.0265111169487551,-0.0067723186605459,-0.1384058650340973,5
0.3938838393695872,-0.3069833369208369,1.1125018438371848,0.0291699140001295,0.0038777095368545,-0.1412454152364017,5
0.3921417530481678,-0.3319296711858705,1.0931691599715023,0.0200118374188159,0.0055161757575395,-0.1343493609472787,5
0.3838212697896325,-0.3260000382510543,1.068916921386649,-0.008348690276889,0.0128892715135699,-0.122585504412442,5
0.3888525545796099,-0.3131173244370226,1.048528916008192,-0.025778593889711,0.0257239198471823,-0.1246137564558513,5
0.4035580457568687,-0.2777438814094946,1.0190043890470997,-0.0237106395519319,0.0292739292463158,-0.1246137564558513,5
0.4136206153368233,-0.2683385455538467,1.0248036183151197,-0.0027356699771467,0.0208085256592316,-0.1319154598244218,5
0.4178767588973429,-0.2943066527257271,1.028142350358947,0.0046498833035771,0.0104315699454902,-0.1465188599153914,5
0.4258104641190935,-0.3448107099623498,1.0174221266425434,-0.0039173554043371,0.0117969592084118,-0.1485471119588007,5
0.4298748038171093,-0.3550351391810273,1.0102162819338942,-0.0225289492845455,0.0216277565325219,-0.140434110431335,5
0.4283261065140822,-0.3628056383857203,1.001429614549901,-0.0370046344891956,0.0213546751006541,-0.133132413708936,5
0.424263351971955,-0.3662813413065517,1.004943993557656,-0.042617649948742,0.0158931269971765,-0.1343493609472787,5
0.4292946367619323,-0.3734371017295843,1.0040657587380206,-0.0517757362104474,0.0008738540532479,-0.1335380627883836,5
0.4532875562896881,-0.3834571763668923,1.0037144648101664,-0.0541391119050242,-0.0174223468579464,-0.1160951058489381,5
0.4540626975191458,-0.3677118233761374,1.0411488640648283,-0.0532528478346314,-0.0253415965295037,-0.1079821043214725,5
0.4395490102043908,-0.3644404750366752,1.0604801082012978,-0.0547299594588153,-0.0288916059286372,-0.1087934091265391,5
0.4289062735692592,-0.3619865450226904,1.063820279974338,-0.0612292438289504,-0.0198800484260261,-0.1087934091265391,5
0.4550296426111074,-0.3167990569767759,1.0515177938533775,-0.0591612894911713,-0.0155108036794979,-0.1023030039168636,5
0.4774754499917246,-0.2828560960188332,1.053449910456576,-0.0299145025652694,-0.0135992605010494,-0.0913504521870936,5
0.5074681845573077,-0.2454374321400591,1.064347220866119,0.0129217054948897,-0.0144184913743398,-0.0958126053533597,5
0.4958585028302145,-0.2284659516610878,1.0817463483993903,0.0300561829107183,-0.0125069481958913,-0.1006804075990734,5
0.4796043143499286,-0.2323520387822105,1.0901817218555294,0.0457135535425588,5.4623179957571646e-05,-0.11934030513069,5
0.4440001279391912,-0.2840822235070496,1.0931691599715023,0.0398051118860189,0.0115238822506483,-0.1315098107449743,5
0.4347126995886943,-0.3253869745069462,1.065928043541463,0.0014002386984116,0.0388316496126624,-0.1477358137999056,5
0.4447736840127604,-0.3231373990743309,1.0564387883017616,-0.0272557006736991,0.0511201395566436,-0.1554431662479237,5
0.4681880216412277,-0.320070405316238,1.050813766268457,-0.0222335279277479,0.046477817852352,-0.1599053194141898,5
0.4801844814051055,-0.345834157906749,1.0530986165287215,0.0123308579410986,0.0254508428894188,-0.164773115013732,5
0.4830869018368789,-0.3640317658739365,1.0541539380414968,0.0454181321857612,0.0085200312411461,-0.15057536400221,5
0.4809580374786749,-0.3840702401110006,1.0515177938533775,0.0569395989822393,0.0060623296730664,-0.1392171631929924,5
0.4654789902278467,-0.4010417205899718,1.037984339255715,0.0663931066007423,0.0128892715135699,-0.1229911534918896,5
0.4629633478328581,-0.4157636256363278,1.0262102337557488,0.0406913807966076,0.0249046889738919,-0.1221798553329944,5
0.4805712594418902,-0.4437752786219019,1.0098649880060402,0.0217843655596016,0.0262700737627092,-0.1197459542101376,5
0.4960518918486068,-0.4407082848638091,1.0146103354904972,-0.0071670000095026,0.0063354066308298,-0.0913504521870936,5
0.4933428604352258,-0.3807988917715385,1.0532742634926486,-0.0062807310989139,-0.0242492886984499,-0.0617379896333639,5
0.4676078545860507,-0.3302931594973633,1.063820279974338,0.0055361473739699,-0.0256146734872671,-0.0621436387128114,5
0.4701219118251509,-0.3147538361255299,1.0481776220803376,0.0271019596623504,-0.0051338524398609,-0.0759357472910574,5
0.4877314085900716,-0.2879683106281721,1.028142350358947,0.0359646245672582,0.0011469310110113,-0.0844543978979706,5
0.5082417406308771,-0.333770537455747,1.0360507829233043,0.0409868021534052,-0.0040415446088071,-0.1023030039168636,5
0.5144349446870968,-0.358510842101859,1.040093542552053,0.0016956600552092,-0.0138723374588129,-0.1124442508415671,5
0.527785127579721,-0.3628056383857203,1.0372817514000068,-0.0269602793169015,-0.0144184913743398,-0.1132555490004622,5
0.5318494672777365,-0.305348500269882,1.0297246127635036,-0.0680239543960791,-0.0111415634070741,-0.1169064040078332,5
0.5289470468459633,-0.2714055393119395,1.026561527683603,-0.0550253808156129,-0.0073184725760728,-0.1392171631929924,5
0.5285602688091787,-0.2534122859261213,1.014785982454424,-0.0328687209734414,-0.0032223092614124,-0.1554431662479237,5
0.5504259091346189,-0.2914440135490035,0.9884231008440202,0.0102629036033194,0.0068815650204611,-0.1854612712349294,5
0.5614554238065351,-0.3159799636137461,0.9796364334600272,0.0265111169487551,0.0041507864946179,-0.2049324802177842,5
0.5738386616071977,-0.3652578933621528,0.9766489953440538,0.0250340053245712,-0.0004915352096736,-0.2106115739762215,5
0.5757741369470093,-0.3812076009342771,0.9764733483801268,0.0102629036033194,-0.0034953862191759,-0.2118285278607357,5
0.5674536536884741,-0.3891824547203393,0.979109492568246,-0.0062807310989139,-0.0032223092614124,-0.2061494274561269,5
0.5486838228131995,-0.3955207968178943,0.9922902135088416,-0.0124845989524473,-0.0040415446088071,-0.2077720304200886,5
0.5392030054443103,-0.3957251513992636,0.9970355609932988,-0.0183930406089872,-0.0051338524398609,-0.2158850319475542,5
0.5291404358643557,-0.3944973488734952,1.002483496333464,-0.0039173554043371,-0.0034953862191759,-0.2231867286699533,5
0.5233355950008091,-0.4030852664036655,1.0070531968539935,0.0084903706223378,-0.0043146215665705,-0.2252149807133626,1
0.5244959291111629,-0.4043130689294341,1.0082827256014837,0.0427593351343868,-0.0095030971863891,-0.2308940877641429,1
0.5281734907723941,-0.40165478433408,1.002483496333464,0.0938673557054667,-0.0144184913743398,-0.2329223398075522,1
0.5378476971596755,-0.3936799305480178,0.9963329731375902,0.1240004115419574,-0.0171492699001829,-0.2308940877641429,1
0.5463615694366031,-0.3930668668039097,0.9910592450321394,0.1804260262157861,-0.0247954426139768,-0.2300827829590763,1
0.5616488128249274,-0.3724153288227375,0.9752423799034244,0.2259210313273196,-0.0359916247269042,-0.2410353413350179,1
0.5448144572894645,-0.3028945702558974,0.9501104667697228,0.2663938588527061,-0.0419993356941173,-0.2592895897871869,1
0.5289470468459633,-0.2386903808797653,0.928492932643776,0.4338981795736025,-0.0556532149010201,-0.3392026578235008,1
0.4708970530546086,-0.106395915006379,0.8578425407271276,0.5972666448610955,-0.0608416905208386,-0.4073518892634925,1
0.4376151200204676,-0.1493355026572305,0.7307763596179897,1.0844176335477622,-0.0723109540656337,-0.5842153132576036,1
0.4281327174956899,-0.2380773171356572,0.6300730601192557,1.70480399780406,-0.1269264798414533,-0.7712199908225894,1
0.3524748120953032,-0.4595206316126569,0.3147810009532455,2.0539929369750767,-0.1782650865982158,-0.873443824690234,1
0.1858701727503168,-0.7742032363957616,-0.1694056921331671,2.905104189203023,-0.2836730473188537,-1.0851932356711227,1
0.1022785621281794,-0.9931926208587764,-0.4542935497892372,3.963896747223412,-0.2017497497069157,-1.180926664329092,1
0.0562250281007027,-1.9439891615059368,-1.259220237381825,4.201711549310171,-0.1037148802682039,-1.112371790455824,1
0.0279743798565389,-2.992932852487171,-1.3272344851103544,3.340556091956004,-0.0157838806372614,-0.588271817344422,1
-0.1132820316760569,-3.16264430720178,-1.2038597697021107,1.0637380853297749,0.1529781087745653,0.2360091724061798,1
-0.3373549126013323,-2.3032478656284,-1.4312779563821283,-0.1049517207996983,0.2684899437770768,0.6485553163609282,1
-0.4193994110763312,-1.6113133033370135,-1.68171885289951,-1.465370548953545,0.3870056297890904,1.523542573965905,1
-0.4379758529332134,-1.5164375013424014,-1.8388379415907337,-2.4701010083603627,0.268216862345209,2.4143501323769927,1
-0.4426187745305176,-0.988695145031098,-2.0214402373435134,-3.088124214730899,0.0978164156609059,2.7774069823003957,1
-0.2320910506721471,-0.1004662820715628,-1.8093119749004287,-3.8195890720656447,-0.3918117820912304,3.3177331445595315,1
-0.1672676857693958,0.4442475547187118,-1.638836518304683,-4.037906016201803,-0.9609055848354336,3.5907356728757454,1
-0.1821681511209354,1.6874386504792973,-1.1940177808053425,-4.042041924877362,-1.2175986499379765,3.546114161151598,1
-0.1779104224045274,2.612677468154868,-0.7361939693293339,-3.898466777618834,-1.5917149008349931,3.0670411693971595,1
-0.1446284893703863,3.248176665237263,-0.453238228276462,-3.5983179095213145,-1.795430834796732,2.1381023981328555,1
0.0819600339498778,4.348647861399519,0.1335838809118827,-2.9528208896636845,-1.8443117355113108,1.4736476109165968,1
-0.0343333426512237,4.622027390220279,0.832886274557353,-1.1294755321168537,-1.858784850065608,-0.3980219338515127,1
-0.2603416989163109,4.3648002485154604,1.2451916072504152,0.2590083055719823,-1.5963572225392848,-2.0218393593834447,1
-0.6730782485304051,2.506759818616101,1.832717744023681,0.6430570713294267,-1.4783876770204851,-2.402338966861147,1
-0.8801233849018254,0.9509296638861042,2.86488697133236,0.9718618110363146,-1.4240453579514545,-2.7215856098654694,1
-0.8925082078583764,0.5935118260335173,2.563479660691866,1.3600465387114724,-1.1291214203317337,-3.0270401442915458,1
-0.7855022596077719,-0.6282103134204183,1.5750710027976502,1.36034196006827,-1.0958059464766106,-3.032313595616707,1
-0.8838009465630565,-1.1714936681411072,1.863650326154615,1.237150939670933,-0.8178128920908316,-2.5284961495855693,1
-0.9194035478179056,-1.39988838845977,1.481046607115784,1.2755558176987365,-0.2137651671672377,-1.5752184734314414,1
-0.7415775899384991,-2.190583164829339,0.9451894723213388,1.1532509887688538,-0.1342995755974837,-0.8535669666279316,1
-0.7191317825578818,-2.0640156523469515,0.802482073047413,0.92577595837099,-0.249538338116336,0.683846932488639,1
-0.638247618193237,-1.766302853005266,0.8740121395129092,0.8542838109387201,-0.3934502483119154,1.5308443770270483,1
-0.3702500675986889,-0.9222413802223508,0.9557340490738152,0.7562036687917268,-0.4316811208290935,1.6975665740349704,1
-0.2553104141263335,-0.4394821573755927,1.0648741617579005,0.9169132983062782,-0.5015890009807095,1.7965452019746917,1
-0.2849163706551321,0.1614626900423037,1.3958074390886983,1.4566495692342816,-0.4928505159617574,1.6797179680160774,1
-0.2558905811815105,-0.016838357240027,1.4659308901135653,1.6959413328991522,-0.4163887709274014,1.5194860698790862,1
-0.193971221866421,-0.1679434948247091,1.4082855721735856,1.9771831857596665,-0.1018033370897554,1.1787399724946714,1
-0.0794183464308503,-0.3822293738411239,1.2147874057404753,2.1145544700048555,0.3059015988432774,0.9868674660992856,1
0.0012708437595137,-0.4781269487425832,0.8293718955495982,2.1473463228927208,0.4719327784105306,0.9276425476379976,1
0.0798327547475622,-0.4697433857937821,0.6429024871319972,2.0599013786316163,0.6393294188263748,0.792561158273616,1
0.3048725807647994,-0.5298588085049746,0.4376287754697078,1.9186896070676664,0.6682756479349696,0.7000729355435704,1
0.3956243405351181,-0.6891431544570881,0.3037080435797751,1.4043598583958152,0.7491065661301846,0.4749370650638831,1
0.3737587002096779,-0.7572317559167903,0.2007198938207762,0.563293062984277,0.9053069841661624,0.223839673438067,1
0.3714380319889701,-0.7449637808844191,-0.0291587900834334,0.0655068425303495,0.9724840902660395,0.089975131619455,1
0.4563833657398536,-0.5308805814118214,-0.136540993399035,-0.6890012339689108,0.9790379551487796,-0.1542262123634095,1
0.4960518918486068,-0.4396865119569622,-0.1310916183296571,-0.7563574775658182,0.8378568055826262,-0.3099958576415616,1
0.5225620389272397,-0.5263831055841429,-0.0999848289640087,-0.5953523879729019,0.7529296524870814,-0.3371744057800914,1
0.4844422101215136,-0.7924008443629491,-0.1534117403113126,-0.1923966650608023,0.5754292451678678,-0.287685105102574,1
0.4525140002161187,-0.9001576851340407,-0.1725687772130675,-0.0160296649144104,0.3665248042675798,-0.2398183874505036,1
0.3420254644785638,-1.0028039863333458,-0.1493704204117766,-0.0048036243149258,0.266578396124524,-0.2519878864186164,1
0.2340525711359975,-1.0500366952305065,-0.0926033372914326,-0.0071670000095026,0.1385049852720593,-0.3144579975154847,1
0.2189587167660656,-1.0847970745139266,-0.0760824445777967,-0.0180976192521896,0.1136549194781248,-0.3310896496498636,1
0.2733327340520776,-1.099110270397544,-0.0708101562015584,-0.0364137869354045,0.1139279964358883,-0.3091845594826666,1
0.3106790067842344,-1.0827518536626803,-0.0790713224229826,-0.0668422641286927,0.085527930191029,-0.2446861830500458,1
0.3764677316230588,-1.0647586002768623,-0.0537637623253538,-0.0594567108479689,0.0202623672696003,-0.1899234244011956,5
0.4205857903107239,-0.9819464187332522,-0.0122866034419433,-0.0476398275348891,-0.0097761741441525,-0.1801878199097682,5
0.4171032028237736,-0.9715193099707572,-0.0147471006661354,-0.0511848934968522,-0.062753233699287,-0.182621721032625,5
0.4018175445913378,-0.9518895448964318,0.0102091655036391,-0.0919531423790363,-0.1001648708690704,-0.1736974213462643,5
0.3998820692515261,-0.9122229806225948,0.0683814243354,-0.1049517207996983,-0.1037148802682039,-0.1582827164502281,5
0.3989151241595645,-0.8987272030644552,0.0878897551650092,-0.0946119394304107,-0.0859648377466408,-0.1246137564558513,5
0.3921417530481678,-0.8664207537950198,0.0982586849535587,-0.0792499901553678,-0.0736763433285553,-0.1197459542101376,5
0.3791767630364399,-0.8382030711905243,0.1037066202937241,-0.0470489848212939,-0.0477339652294627,-0.1424623624747443,5
0.3735653111912855,-0.8377943620277853,0.1056401766261348,-0.0228243706413431,-0.0193338900363948,-0.1801878199097682,5
0.3551838435086841,-0.8690790383903738,0.1093316423270291,-0.016325086271208,-0.0048607754820974,-0.1939799218418426,5
0.330609171769863,-0.921219607315504,0.1093316423270291,-0.0378908985595885,0.0254508428894188,-0.2114228787812881,5
0.3188045158684889,-0.927557949413059,0.0986099788814129,-0.1017020713543369,0.0587663122704375,-0.221564132352163,5
0.3348653153303825,-0.8968863367945787,0.0574855536550692,-0.1300625893696501,0.0696894218997057,-0.2268375836773243,5
0.3861435231662288,-0.8549701970881259,0.038856897374308,-0.1386298280775644,0.0612240138385172,-0.2199415293882013,5
0.3962060927461835,-0.8504710462228954,0.0492258271628575,-0.0606384011153552,0.0221739104480488,-0.1850556221554819,5
0.3818857944498208,-0.8682599450273443,0.0602973448071154,-0.0157342387174169,0.0022392433161694,-0.1732917722668167,5
0.35305497915048,-0.8715329684043587,0.0381528697893871,0.0424639089373933,-0.0269800627501887,-0.1801878199097682,5
0.3366074016518018,-0.890752349278393,0.0270813521451292,0.0613709290145952,-0.0387224032527473,-0.2012816252104132,5
0.3184177378317043,-0.9717236645521266,0.0023007329392817,0.0480769292371356,-0.0398147155579054,-0.199659028892623,5
0.3120327299129807,-0.9835829304217594,-0.034958019351453,-0.0062807310989139,-0.0425454940837486,-0.1676126718622079,5
0.3075816121781803,-0.9655896770359412,-0.0644839860417575,-0.0479352488916867,-0.0567455272061782,-0.1359719639112404,5
0.3066146670862187,-0.9336919369292443,-0.1208983355050347,-0.053548269191429,-0.0712186417604756,-0.1270476575787081,5
0.3010032152410644,-0.9248996648177048,-0.1541157678962335,-0.0417313858783492,-0.1195533840854229,-0.1177177021667283,5
0.2901670895875405,-0.9365545761059682,-0.1627267883162994,-0.0325732996166438,-0.178811244987847,-0.1031143087219303,5
0.272365788960116,-0.9647722587104636,-0.1767871838057432,-0.0420268072351468,-0.2039343698431276,-0.0889165510642367,5
0.2679146712253156,-0.9490269057197084,-0.1713392484655778,-0.0836813201877237,-0.2440767855387541,-0.0528136833008316,5
0.2721723999417237,-0.927557949413059,-0.1627267883162994,-0.1241541477131102,-0.282853811971459,-0.0219842868011023,5
0.2872646691557672,-0.8709182296226983,-0.1240628603141477,-0.1350847669557972,-0.3071577417462839,-0.016710835475941,5
0.3097104765363844,-0.8457692158138476,-0.0597386385573005,-0.1297671680128525,-0.3609540053300827,-0.0179277893604552,5
0.3141615942711847,-0.8494492733160485,-0.0193168011866652,-0.1034746043353185,-0.4095618290868978,-0.0191447365987979,5
0.3195796570979466,-0.8619216029297893,0.0622309011395261,-0.0934302540032202,-0.4267657221670384,-0.0195503856782454,5
0.3201598241531236,-0.8696921021344821,0.1007191821777507,-0.0963844724113923,-0.4396003705006507,-0.0219842868011023,5
0.3108723958026267,-0.8889114830085165,0.1618803188546974,-0.1483787618930609,-0.4273118760825653,-0.0483515301345654,5
0.309517087517992,-0.8764391533947757,0.1972055148130215,-0.1962371523795631,-0.4185733910636133,-0.0747188000527147,5
0.3242225786952509,-0.8527206216555108,0.2086283263851336,-0.2904767878470121,-0.4079233628662128,-0.1173120530872808,5
0.3418320754601715,-0.7872903047911625,0.2207551655421668,-0.3025890925168895,-0.4010964210257093,-0.1144725028849763,5
0.3538285352240494,-0.759685685930775,0.2311240953307162,-0.2467543157164601,-0.3784309753679867,-0.0706622959658962,5
0.3611820733906231,-0.7662283826096994,0.2411417311914115,-0.1628544422575151,-0.3672347932550595,-0.0361820444587958,5
0.3646646608775733,-0.7858581476840247,0.2662750840543257,-0.1347893407588037,-0.3702386442645617,-0.0406441909788904,5
0.3646646608775733,-0.8347273682696925,0.3228650804815301,-0.0996341170165578,-0.3833463740300418,-0.0783696484139142,5
0.3648580498959656,-0.8549701970881259,0.350633137803351,-0.1076105178510727,-0.3858040711240172,-0.0917561012665411,5
0.3495723916635298,-0.843928349543971,0.3757650509370526,-0.1268129447644846,-0.3792502107153815,-0.0824261525007328,5
0.3565375666374303,-0.8214359452929223,0.3977338789908539,-0.1492650259634537,-0.3571309547660204,-0.0544362862647933,5
0.3772428728525167,-0.8099853885860284,0.414781712596271,-0.1380389853639692,-0.3473001574419103,-0.0357763953793483,5
0.3967862598013605,-0.7823824447631931,0.4407918605496083,-0.1232678884829133,-0.3497578545358857,-0.0349650905742816,5
0.3886591655612175,-0.7766571664097464,0.4668034482321581,-0.076886614460791,-0.3544001762401774,-0.0548419353442409,5
0.3911748079562062,-0.7919921352002103,0.4827959603248,-0.0310961879924598,-0.3456616912212253,-0.0775583502550192,5
0.3991085131779568,-0.8206185269674448,0.5079278734585018,-0.017802197895392,-0.334465509108298,-0.0836430997390755,5
0.4000754582699184,-0.8161193761022142,0.5091588419352041,-0.0166205076280056,-0.29951156903249,-0.0921617503459887,5
0.3967862598013605,-0.7993539252421644,0.494747152517906,-0.0183930406089872,-0.2790307256145621,-0.0990578046351117,5
0.423294821724105,-0.819596754060598,0.4961523282293229,-0.0015539797097603,-0.2468075640645972,-0.1132555490004622,5
0.4337441693408442,-0.8410657103672476,0.4991412060745088,0.024443162610976,-0.2290575125948254,-0.1160951058489381,5
0.4472893264077491,-0.8500623370601568,0.4940445646621976,0.0288744926433319,-0.2225036521861897,-0.1136612047260813,5
0.4372283419836829,-0.8557876154136035,0.4831472542526543,0.0241477412541784,-0.211307465599158,-0.1063595080036822,5
0.4308417489090709,-0.8514944941672946,0.4719000896444693,0.0084903706223378,-0.1894612552888302,-0.1031143087219303,5
0.4306483598906785,-0.8379987166091549,0.4471194704386218,-0.0024402437801531,-0.1752612355887136,-0.0994634537145592,5
0.4337441693408442,-0.8357491411765394,0.4409675075135354,-0.0216426852141527,-0.1577842655508096,-0.0913504521870936,5
0.4308417489090709,-0.8216402998742917,0.445010267142284,-0.0272557006736991,-0.1550534870249664,-0.0925673994254363,5
0.4231014327057125,-0.8093723248419203,0.4443076792865755,-0.0313916141894533,-0.1506842422784382,-0.1071708061625773,5
0.4258104641190935,-0.8099853885860284,0.4446589732144297,-0.0293236598516742,-0.1433111375741992,-0.122585504412442,5
0.4343243363960212,-0.8216402998742917,0.4552035499669063,-0.0310961879924598,-0.1370303541233269,-0.1238024582969562,5
0.4300681928355016,-0.8251176778326753,0.4706691211677669,-0.0452764518403123,-0.1165495286018163,-0.1185290003256234,5
0.4316153049826401,-0.8132567369254906,0.4713731487526879,-0.0635926195235272,-0.0845994529578235,-0.1087934091265391,5
0.4424514306361641,-0.7670474759727292,0.4604758383431446,-0.0692056446634654,-0.0695801755397906,-0.1067651570831298,5
0.4550296426111074,-0.7263574637544927,0.4479977052582573,-0.0526620002808403,-0.0553801379432566,-0.1278589623837748,5
0.4618014285666156,-0.7257427249728324,0.4476464113304031,0.0037636143929884,-0.0592032243001536,-0.1631505186959418,5
0.4569651179509191,-0.7739988818143922,0.4525674057787872,0.0321241372484974,-0.0605686135630751,-0.174914368584607,5
0.4469025483709644,-0.8103940977487673,0.4581909880828796,0.0489631981477243,-0.050737816238965,-0.182621721032625,5
0.426392216330159,-0.8633537600369271,0.4590706626317278,0.0067178376413563,-0.0261608318768984,-0.1708578711439599,5
0.4132338373000387,-0.8506754008042646,0.4367505406500722,-0.0183930406089872,-0.0141454144165763,-0.1659900688982462,5
0.4122653070521886,-0.8328865019998161,0.4228657921245556,-0.0334595685272325,-0.0002184537778058,-0.1692352681799981,5
0.413427226318431,-0.8024209190002572,0.4035331082588735,-0.0225289492845455,0.0011469310110113,-0.174914368584607,5
0.413427226318431,-0.8089636156791816,0.3838505701945497,0.0179438782408408,-0.0018569199984908,-0.1956025248058044,5
0.4124602812264694,-0.8324777928370772,0.3775229603055363,0.0483723554341291,-0.0067723186605459,-0.2122341769401832,5
0.4023977116465148,-0.8899349309529154,0.3717237310375166,0.0495540408613195,-0.0054069293976243,-0.2089889776584313,5
0.4029778787016917,-0.9050655451620102,0.3618817421407485,0.0208981014892087,0.0049700173679083,-0.1850556221554819,5
0.408009163491669,-0.890752349278393,0.3548515443960266,-0.0195747308763735,0.0104315699454902,-0.1655844198187986,5
0.4095562756388076,-0.8461779249765865,0.3399129140869473,-0.0322778782598462,0.0098854160299633,-0.16152791573198,5
0.4151677274839619,-0.8236855207255377,0.3348162726746361,-0.0408451169677605,0.0060623296730664,-0.1611222666525325,5
0.4174899808605583,-0.8179602423720908,0.3335853041979338,-0.0414359645215516,-0.001310766082964,-0.1668013670571413,5
0.4178767588973429,-0.8318647290929692,0.3367498290070468,-0.0408451169677605,-0.0051338524398609,-0.1704522220645123,5
0.4091694976020231,-0.8588546091716965,0.3495792560197883,-0.0381863199163861,-0.0086838618389944,-0.1708578711439599,5
0.4089761085836307,-0.8611041846043116,0.3559054261795892,-0.0414359645215516,-0.004587698524334,-0.1619335648114276,5
0.415556090676635,-0.8568093883204504,0.3585415703677084,-0.0452764518403123,-0.0024030783881221,-0.1607166175730849,5
0.4273591614221206,-0.8523119124927718,0.3569607476923644,-0.0482306750886802,-0.0007646121674371,-0.1655844198187986,5
0.4323904462120979,-0.854357133344018,0.358718657060848,-0.03966343154057,-0.0056800063553878,-0.1655844198187986,5
0.4250369080455243,-0.864375532943774,0.3726019658571521,-0.033164142330239,-0.0097761741441525,-0.1639618168548369,5
0.4190386781635853,-0.8631494054555578,0.3752381100452713,-0.0245969036223247,-0.013326183543286,-0.1663957179776937,5
0.4238765739351703,-0.8533336853996187,0.3703171155968872,-0.016325086271208,-0.0103223280596794,-0.1680183209416555,5
0.4401307624154563,-0.8422918378554638,0.3588943040247751,-0.0110074873282633,-0.0070453956183094,-0.1659900688982462,5
0.4414844855442025,-0.8396352282976618,0.3527423410996888,-0.009825797060877,-0.0034953862191759,-0.1635561677753893,5
0.4430331828472295,-0.8326821474184467,0.3504574908394238,-0.0139617105766312,-0.0024030783881221,-0.164773115013732,5
0.4366465897726175,-0.8296151536603539,0.3552028383238808,-0.0275511268706926,0.0016930894006425,-0.1586883655296756,5
0.4302615818538939,-0.819596754060598,0.3574876885841457,-0.0455718731971099,0.0087931081989095,-0.1497640658433149,5
0.4275525504405129,-0.7973087043909184,0.350633137803351,-0.0523665789240427,0.0134354254290968,-0.1489527610382482,5
0.4347126995886943,-0.7721580155445156,0.3342893317828547,-0.0567979137965945,0.0180777471333884,-0.1550375171684761,5
0.4333573913040595,-0.7666370917724381,0.3307735130458875,-0.0449810304835147,0.0156200455653087,-0.1643674659342844,5
0.4337441693408442,-0.772772754326176,0.3270834870742057,-0.0367092082922021,0.0142546607764915,-0.1672070161365889,5
0.4347126995886943,-0.7772702301538544,0.3232163744093843,-0.0228243706413431,0.0104315699454902,-0.1753200176640545,5
0.4434199608840142,-0.7866755660095023,0.3128474446208348,-0.0121891775956497,0.0030584741894598,-0.1887064705166814,5
0.4470959373893569,-0.8150976031953673,0.3189994075459212,-0.0101212232578705,-0.0032223092614124,-0.1927629746035,5
0.4440001279391912,-0.8251176778326753,0.3262038125253577,-0.0118937562388521,-0.0155108036794979,-0.1956025248058044,5
0.4360664227174405,-0.825935096158153,0.3342893317828547,-0.0118937562388521,-0.0174223468579464,-0.1956025248058044,5
0.4440001279391912,-0.824502939051015,0.3335853041979338,0.0016956600552092,-0.0174223468579464,-0.1951968757263568,1
0.4488380237107762,-0.8204141723860755,0.3334096572340067,0.0265111169487551,-0.0250685195717402,-0.2000646779720705,1
0.4474827154261414,-0.8097810340046592,0.3332340102700796,0.0380325789050373,-0.0316223844544803,-0.20371552633327,1
0.4443869059759758,-0.7398515662750803,0.3170658512135105,0.0666885279575399,-0.0425454940837486,-0.2231867286699533,1
0.4474827154261414,-0.6541784205922986,0.2986114021674639,0.1686091380625104,-0.0613878444363655,-0.2937698545866303,1
0.42910124774354,-0.3619865450226904,0.2768196608068023,0.2814603867709515,-0.0783186650328469,-0.3744942141356677,1
0.2969404606989372,-0.0432151735746461,0.0973804501339231,0.6947559394542977,-0.1304764892405868,-0.7010425738009037,1
0.2448886967895215,-0.0460778127513696,-0.0077169029214135,1.551184500213435,-0.2451690978439122,-1.1971526673840232,1
0.1496858192844024,-0.348492442502103,-0.2071913853156832,2.1092368710619107,-0.3183539238592113,-1.4571742922344846,1
-0.1753947800095388,-0.9480051328128616,-0.6057876164471558,3.2696547823971325,-0.4374157503644388,-1.9618031361170905,1
-0.3449018397862983,-1.4295365531338513,-0.9460359417829404,3.996097757397681,-0.3792502107153815,-2.144345693746668,1
-0.4134011811943922,-2.488704673333763,-1.6346181117120069,3.971873148057927,-0.2992384876006222,-1.9147477232700865,1
-0.5656855222430159,-2.885789075460188,-1.8476246089747264,2.810569113017993,-0.1061725773621792,-0.6515532598310432,1
-0.7156476099150432,-2.4837968133057937,-2.013356157815229,0.35502051274198,0.1024587328910931,1.1231659090407544,1
-0.9906119206393804,-0.7220626674706316,-2.5147648917417733,-0.8048066284825852,0.1652666031926508,1.861854869920036,1
-0.9848070797758336,-0.0139757180633036,-2.6957863648192086,-2.16049863264434,0.1477896331547468,2.677211407122332,1
-0.8288467622218675,-0.3212965328044542,-2.7465771319783934,-3.097873148546396,-0.181815078100932,2.9112715241190075,1
-0.652761305507992,-0.7578448196608986,-2.6847134074457384,-3.777934554272872,-0.4669081378626648,3.104766633478355,1
-0.7721504915592591,0.5158135341367979,-2.1681889565169747,-5.080450946540459,-0.9920364385543446,3.617102929501551,1
-0.7200987276498434,1.3200024130269543,-1.7465700155481385,-5.808075611808395,-1.1105521379886714,3.781391232032788,1
-0.3909537886578866,2.4478721984306766,-1.3071992133889636,-6.115019185632846,-0.9264977986751526,3.7469109672333447,1
-0.1912621904530399,3.78798431703712,-1.0658962781834294,-5.78237388600426,-0.8784361333079687,3.4739084389171317,1
0.5448144572894645,5.056121747062739,-0.5448035664633487,-3.9427800924629817,-1.0379134837853166,2.235052780675339,1
0.8518987817817004,5.496350091421385,-0.2947139638738214,-1.3247496249433857,-1.4518991405317612,0.1053898365154912,1
0.3793701520548322,5.054893944536971,0.3813900729703576,-0.1194274011641525,-1.5821571849427507,-1.059231628124764,1
0.0217827609562076,4.26951573735811,0.5536219992053754,1.6675808100436431,-1.6780074431934593,-2.589343671010819,1
-0.5198253772339314,1.7401939581860877,1.303363866082176,2.694468224544582,-2.138962529061703,-3.110198418255783,1
-1.139802037393727,-0.5122742642818952,2.0392224241626726,2.854291589988741,-2.321105459419903,-3.19335669222002,1
-1.4043170005013248,-1.3201448757118048,1.790889291212416,2.243653932058732,-2.2206127452417737,-3.172262886919375,1
-1.6094266615329331,-3.3501463357583887,1.551696999032432,0.8637373185572231,-1.6501535219159182,-2.191401106593672,1
-1.2797015554857996,-3.741505459531366,1.2395680249463228,0.1302042842356867,-1.2621103059060268,-1.2608396326728328,1
-1.44224185513277,-3.2865552101263646,0.8067004796400886,-0.3028845138736871,-0.6381278601613015,0.6968277362618184,1
-1.642515205548682,-1.936833401082904,0.8323593336655717,0.5310920528100072,-0.4775581660600653,2.0172186667335947,1
-0.8042720904830464,-0.3296800957532552,1.3467745812979972,1.0031765522999958,-0.3647770916869797,2.1372910999739605,1
-0.4296537845187897,-0.682394428159242,1.0088111062224774,1.714257505422563,-0.1282918691043749,2.106461690181888,1
-0.4207531342050775,-0.8551745516694956,1.0244523243872652,1.8008161856132745,-0.170072759968895,2.281702544442895,1
-0.3559313544582146,-0.4707668337381813,1.5234005610896175,1.7706831297767835,-0.1741689232835554,2.190025613225573,1
-0.1074756056566218,-0.4820130358637057,1.4371089510081818,1.7618204648718756,0.0590393937023052,1.7081134766852932,1
-0.0252393033191191,-0.5597113277604252,1.207581561031826,1.5695006727368457,0.3438593899285876,1.4172622426576131,1
0.0217827609562076,-0.5034819921703554,0.8815692781494124,1.446900640258981,0.4555481206777848,1.339377420018537,1
0.0451955134287864,-0.3634187021298283,0.7400914076229764,1.0711236386104983,0.6494332886341441,1.1832021256609375,1
0.1599417778827494,-0.0593675606905877,0.5371025462209521,0.5553166669899579,0.7917066789197865,0.96780191284205,1
0.320353213171516,0.2187137985392203,0.3469431118316691,0.3535434011177962,0.855879929536057,0.8144662683793277,1
0.403751434775261,0.2935511262967685,0.2400878494078488,0.1810168689293813,0.959103283542796,0.4031369985550349,1
0.5347518877095099,0.0101531978762523,0.0439535387866192,0.1712679399540806,0.9839533493367304,0.1771899096705109,1
0.5817723668289483,-0.5016411259004788,-0.025291677418612,0.2398058689781786,0.9533686540074504,-0.1773482697074638,1
0.5746122176807669,-0.6445670551177294,-0.0804764981343995,0.1570876954670118,0.8506914539162386,-0.316486249558894,1
0.5471351255101725,-0.7789067418423616,-0.190143551710266,-0.0381863199163861,0.7731374010508286,-0.3416365589463576,1
0.5643578442383084,-0.932464134403476,-0.3013928676906891,-0.3604918478560775,0.5923600612902448,-0.3473156593509664,1
0.5579712511636964,-0.9796985183381888,-0.3375962984686487,-0.4186899664697124,0.3777209863805072,-0.2966094047889347,1
0.4846355991399059,-0.9942160688031754,-0.3426929398809599,-0.3817622387876603,0.280232279805531,-0.2945811527455255,1
0.4753465856335205,-1.0637368273700158,-0.301217220726762,-0.2426184070409018,0.1387780622298227,-0.3436648043435953,1
0.4912139960770218,-1.104016455387961,-0.2609695905908413,-0.0523665789240427,0.0486624424626682,-0.3667868616876497,1
0.525464459359013,-1.141435119266735,-0.2084209140631729,0.0152850811894665,0.0134354254290968,-0.350966507712166,1
0.5384278642148526,-1.15247696681089,-0.1274015923579753,0.0525082689498833,-0.0526493594174135,-0.2799777460083844,1
0.5405567285730565,-1.1528856759736288,-0.0755555036860154,0.0191255685082272,-0.0960687030803057,-0.1915460273651573,1
0.5490706008499842,-1.0948154741136826,-0.0064873741739237,-0.0133708630228401,-0.1042610341837308,-0.1509810130816575,1
0.577321249094148,-0.9719280191334962,0.0374502819336787,-0.0813179444931469,-0.1020764140475189,-0.101086056678521,1
0.5827393119209099,-0.918152613557411,0.0562545851783669,-0.1135189595076126,-0.0876033039673258,-0.0885109019847892,1
0.5732584945520206,-0.8361578503392781,0.066800601660056,-0.1005203810869506,-0.0766801988121619,-0.1014917057579685,1
0.5730651055336283,-0.824502939051015,0.0689098049563938,-0.0494123605158706,-0.056199368816547,-0.1493584101176958,5
0.5649380112934854,-0.8549701970881259,0.066800601660056,-0.0062807310989139,-0.041180104820827,-0.1797821708303206,5
0.5484904337948071,-0.898114139320347,0.0478192117222281,-0.0074624213663002,-0.0343531585062191,-0.1789708726714255,5
0.5397831724994873,-0.9022029059852864,0.0407890139775062,-0.0378908985595885,-0.0206992792993164,-0.1676126718622079,5
0.5409435066098411,-0.8842096525994687,0.0181175980679966,-0.0606384011153552,-0.013326183543286,-0.1562544644068188,5
0.5359122218198639,-0.8463822795579558,-0.0063117272099966,-0.0641834670773184,-0.0168761929424195,-0.1501697149227624,5
0.5349452767279023,-0.8251176778326753,-0.0138688658464998,-0.0437993402161284,-0.0318954614122438,-0.1603109684936374,5
0.5355254437830793,-0.8050792035956114,-0.0284547624985124,-0.025778593889711,-0.0409070278630635,-0.1720748183823025,5
0.5301073809563173,-0.8257307415767836,-0.0479630933281216,0.0126262841380921,-0.054014748680335,-0.1923573255240524,5
0.5293338248827478,-0.8408613557858784,-0.0593873446294463,0.036850888637651,-0.0643916999199721,-0.2069607322611935,5
0.5243025400927707,-0.8662163992136505,-0.0799495572426182,0.0439410205615772,-0.071491718718239,-0.2102059315429455,5
0.5210133416242126,-0.9050655451620102,-0.1078932615283661,0.0495540408613195,-0.0878763853991936,-0.2053381292972318,5
0.5144349446870968,-0.9118125964223038,-0.1254680360255646,0.0309424469811111,-0.1080841205406277,-0.1911403716395383,5
0.5099838269522964,-0.9011811330784396,-0.1484907458629285,0.0191255685082272,-0.1184610717802647,-0.1862725693938245,5
0.5074681845573077,-0.8852314255063155,-0.1641334037569288,-0.0071670000095026,-0.1424919067009088,-0.1805934689892157,5
0.5034054300151806,-0.8690790383903738,-0.1711621617724382,-0.0278465482274902,-0.1695266015792638,-0.1834330191915202,5
0.4908272180402371,-0.851698848748664,-0.173271365068776,-0.0305053452788646,-0.1837266257534848,-0.1883008214372338,5
0.471090442073001,-0.8793017925714991,-0.1766115368418161,-0.0248923249791223,-0.2104882347258677,-0.2033098772538225,5
0.4648988231726698,-0.9022029059852864,-0.1729200711409218,-0.0361183655786069,-0.2416190884447787,-0.1980364259286612,5
0.4596741493643001,-0.9091543118269498,-0.1602662910921073,-0.0500032032294659,-0.2593691354404461,-0.1846499730760343,5
0.4567717289325269,-0.8535380399809884,-0.1295107956543131,-0.072455284428435,-0.2951423242859619,-0.164773115013732,5
0.4681880216412277,-0.8357491411765394,-0.0998091820000816,-0.0467535634644963,-0.3306424182772967,-0.1773482697074638,5
0.475928337844586,-0.8455648612324782,-0.0433933928075918,-0.0263694366033063,-0.3440232250005403,-0.1899234244011956,5
0.4685747996780123,-0.8480171162089105,0.0007184705347252,-0.0189838833225824,-0.3563117194186258,-0.2008759761309656,5
0.465672379246239,-0.8377943620277853,0.017239363248361,-0.0405496956109628,-0.3516693977143342,-0.1951968757263568,5
0.4739928625047743,-0.8185733061161988,0.0527402061706122,-0.0423222285919444,-0.3467540035263835,-0.1943855709212902,5
0.478637369257967,-0.8214359452929223,0.0757629160079761,-0.0260740152465087,-0.3451155373056984,-0.1988477240875563,5
0.4763151158813706,-0.826548159902261,0.1102098771466646,-0.0157342387174169,-0.3473001574419103,-0.2077720304200886,5
0.4732193064312049,-0.8330908565811853,0.1221610693397706,-0.0030310913339443,-0.3486655467048319,-0.2321110350024856,5
0.4691549667331893,-0.8361578503392781,0.1295425610123467,0.0123308579410986,-0.3366501292445099,-0.249148336216312,5
0.4583188410796654,-0.8134627665444122,0.1353417902803664,0.0235568937003872,-0.3238154809108975,-0.2592895897871869,5
0.4422580416177717,-0.8304325719858312,0.1291912670844925,0.051326578682497,-0.2896807717083799,-0.2889020523409166,5
0.4403241514338485,-0.8461779249765865,0.1237433317443271,0.0557579087148529,-0.2492652611585726,-0.3079676055981524,5
0.4399357882411754,-0.8762347988134065,0.1065198511749828,0.0436455992047796,-0.2331536803835902,-0.3104014934286661,5
0.4335507803224519,-0.8983184939017163,0.0850779640129629,0.0129217054948897,-0.2203190275758734,-0.308778910403219,5
0.4320036681753133,-0.9281710131571668,0.0907015463170554,-0.0012585583529627,-0.2309690602473782,-0.2909303043843259,5
0.423683184916778,-0.969269734538142,0.1114408456233669,-0.0118937562388521,-0.2397075452663302,-0.2734873407987089,5
0.4099446388314807,-0.9492312603010776,0.1121434334790753,-0.0458672945539075,-0.2492652611585726,-0.245497481208941,5
0.403751434775261,-0.931851070659368,0.1105611710745188,-0.0836813201877237,-0.2465344826327294,-0.2377901354070943,5
0.3911748079562062,-0.8838009434367297,0.1042350009147179,-0.0966798937681898,-0.2413460114870153,-0.2373844863276468,5
0.3851765780742672,-0.8249116482137538,0.0908771932809825,-0.098747848105969,-0.2257805846275597,-0.2337336379664473,5
0.3859501341478366,-0.7993539252421644,0.0836713485723335,-0.0609338224721528,-0.2244151953646382,-0.2361675390893042,5
0.3785965959812629,-0.8247072936323845,0.0915812208659035,-0.0266648579601039,-0.2323344450361955,-0.2422522885733605,5
0.3768560948157319,-0.8590589637530658,0.1038837069868637,0.0309424469811111,-0.246261405674966,-0.2596952388666345,5
0.3745338414391356,-0.9189700318828884,0.1376266405406313,0.022966050986792,-0.2427113962758325,-0.2544217875414732,5
0.3725983660993239,-0.9289884314826444,0.1773458900555581,-0.0006677156393675,-0.2350652235620386,-0.2430635867322556,5
0.3702761127227276,-0.9154943289620568,0.1965029269573131,-0.0517757362104474,-0.2151305564301593,-0.2264319345978768,5
0.3770494838341243,-0.896681982213209,0.2288406847996638,-0.0836813201877237,-0.1962881971293337,-0.2244036825544675,5
0.384983189055875,-0.8656016604319902,0.2385055870032923,-0.0889989191306684,-0.188368942983672,-0.2244036825544675,5
0.3760809535862742,-0.8635581146182965,0.2446575499283787,-0.052071157567245,-0.1687073707059735,-0.2357618900098566,5
0.3646646608775733,-0.9410520519336464,0.2664507310182528,-0.0033265126907419,-0.1427649836586723,-0.2406296922555703,5
0.354215313260834,-1.0254990701282118,0.2910542635309607,-0.0015539797097603,-0.1285649460621383,-0.2304884386846954,5
0.3480236943605028,-1.0347017264400422,0.2919339380798088,-0.0455718731971099,-0.0895148471457743,-0.1980364259286612,5
0.3358338455782326,-0.9874673425053296,0.2685584945853781,-0.0745232387662142,-0.0673955554035787,-0.1838386749171392,5
0.3369941796885865,-0.9259214377245518,0.2397365554799946,-0.0963844724113923,-0.0256146734872671,-0.171669169302855,5
0.3395098220835751,-0.9046568359992712,0.2274340693590344,-0.0550253808156129,0.0011469310110113,-0.168423970021103,5
0.3375743467437634,-0.8887071284271472,0.2105618827175444,-0.0219381065709503,0.0115238822506483,-0.1704522220645123,5
0.3364140126334096,-0.9048611905806406,0.1782241248751936,0.0309424469811111,0.0350085632557655,-0.1830273701120726,5
0.3387362660100059,-0.9179465839384896,0.1590685277026512,0.044827289472166,0.0486624424626682,-0.1818104228737299,5
0.3375743467437634,-0.9402346336081688,0.1367484057209957,0.0424639089373933,0.0500278272514855,-0.1757256733896736,5
0.3375743467437634,-0.9322597798221068,0.1153065185589758,0.0300561829107183,0.049754750293722,-0.1680183209416555,5
0.3369941796885865,-0.9347137098360913,0.1058158235900619,0.0078995279087426,0.0492085963781951,-0.1619335648114276,5
0.3412519084049946,-0.9179465839384896,0.0885923430207176,-0.0080532689200913,0.0467508992842198,-0.1570657692118854,5
0.3426056315337408,-0.8974994005386866,0.0833200546444793,-0.0316870355462509,0.0363739525186871,-0.1497640658433149,5
0.3435725766257024,-0.8533336853996187,0.0778721193043139,-0.017802197895392,0.0322777847299224,-0.1582827164502281,5
0.3472501382869334,-0.819596754060598,0.0683814243354,-0.0027356699771467,0.0347354862980021,-0.1668013670571413,5
0.3484104723972874,-0.8089636156791816,0.0641644574719369,0.0291699140001295,0.0421085820540325,-0.182621721032625,5
0.348797250434072,-0.845360506651109,0.0555519973226585,0.0403959545996141,0.044839351631667,-0.1862725693938245,5
0.3576994859036728,-0.864375532943774,0.0511579437660557,0.0297607615539206,0.0391047265704259,-0.1854612712349294,5
0.3617622404458001,-0.856605033739081,0.0455343614619632,0.0005139746280187,0.0251777659316554,-0.1801878199097682,5
0.3621490184825847,-0.8069183948279356,0.0323536405213675,-0.008348690276889,0.0188969824807831,-0.1818104228737299,5
0.3671803032725619,-0.7367845725169875,0.023565533408162,-0.0045081981179323,0.0068815650204611,-0.2033098772538225,5
0.374727230457528,-0.6836222306850105,0.0182932450319237,0.065211416333356,-0.0155108036794979,-0.2536104893825781,1
0.3915615859929908,-0.4891687962867381,0.002827673831063,0.143793700529748,-0.0376300954216935,-0.2957981066300396,1
0.3844014368448095,-0.126434389243443,0.023565533408162,0.4188316516553572,-0.1135456731182097,-0.4592750777715237,1
0.3385428769916135,-0.0203140601608586,0.0409646609414333,0.9358203135432842,-0.173895846325792,-0.7659465394974282,1
0.1272400119037852,-0.0704094082347426,-0.0544663501810622,1.2782146147501106,-0.166795827527525,-0.9744507046733644,1
-0.0854165763127893,-0.6662420410433005,-0.2214274277690541,1.9355286679668933,-0.0477339652294627,-1.4198544772327368,1
-0.1500465521971482,-0.9862412150171136,-0.3702853502388536,2.46167560004397,0.1819243244608471,-1.6628389005619448,1
-0.2765958873965968,-1.5340220455654805,-0.9985860580398214,2.6729024122562017,0.2949784936881135,-1.6506693949476603,1
-0.3412242781250673,-2.165432475982936,-1.4792569323892668,2.7582794021795265,0.4222326468226619,-1.2336611775807045,1
-0.4911879509529831,-2.386877465497488,-1.4831226053248758,1.9550265259174944,0.5303713994914558,-0.2803833950878319,1
-0.7969185523164726,-2.340462174925805,-1.9108949489480112,1.081758836496388,0.5806177207876863,0.335799125089482,1
-1.154314139552593,-1.8440028199395373,-2.549211852880461,-1.0754132882974057,0.5735177019894193,1.6809349219005918,1
-1.36368152930061,-1.7515809479589095,-2.846929137549273,-2.855922437784078,0.4986943873829136,2.99524109624214,1
-1.5664705221115107,-1.6605912330854202,-3.038319540415258,-3.4083614930808617,0.3902825577563561,3.589518725637402,1
-1.5860139090603544,-1.184987770661695,-2.7031664167625724,-4.020180686391988,-0.0324416153277707,4.602021014528928,1
-1.5641482687349144,-0.5077751134166644,-2.534097575607455,-4.448838173829789,-0.5734084243107738,5.029576234238779,1
-1.0720762520592022,1.1554014978841325,-2.0901570729277505,-4.672768133425493,-0.8055243976727462,4.899362547427539,1
-0.5060868311486342,2.5824145646991266,-1.8015791892999988,-4.662428361736598,-1.0848828413214466,4.259246665101103,1
-0.2529881607497372,3.272918644920927,-1.6103644333979408,-3.967595549356528,-1.3271027918696925,3.1895475037603824,1
0.0910556584378708,4.519176734439605,-0.7449806367133268,-3.578229208857118,-1.4598183946774228,2.4987253535795726,1
0.220120636032308,4.703407414656752,-0.0207219768980821,-2.0000844244865856,-1.6222996006383774,0.9511702540614996,1
0.0906688804010862,4.592173195927277,0.2457114317119413,0.4504418191160318,-1.5360070627540152,-0.7375510308282126,1
-0.2224152591289771,3.933364176268355,0.5910563984600372,1.2885543864390063,-1.3759836925842706,-1.5095031564066494,1
-0.402371666522476,2.0244093049320813,0.7968584907433205,1.9703884800327331,-1.228248678135377,-2.608814873347502,1
-0.5711035850697779,0.7914409633526213,1.035348195067596,1.671421297362404,-1.6343150180986994,-3.2412234098720907,1
-1.130319634868949,-0.9882864358683592,2.0437921246832023,1.6031787896951035,-2.0087044846507136,-3.4103795080028694,1
-1.539573596996093,-1.6113133033370135,2.011981307732633,1.449559442150551,-2.5149905960575323,-3.3300607842409367,1
-1.49216633983987,-2.393420162176412,1.7657573780787146,0.3446807362128883,-2.198220381015919,-2.4794124846951564,1
-1.5833048776469738,-3.539896264710061,1.2128538494080645,-0.3486749597028018,-1.8896426268267557,-1.5180218070135627,1
-2.497981039342454,-2.281777234284198,1.0886008991801854,-0.4098273402863718,-1.3716144478377423,0.7759295061392371,1
-2.3259599223265943,-1.5272749943051869,1.6033660010112527,0.4832336720038968,-0.9289555002432324,2.0196525678564514,1
-1.1419293165960425,-0.5713662390486882,1.7710311061841653,0.8519204304039474,-0.5523814448737363,2.033850318867973,1
-0.8104637093833775,-0.5218839547189124,1.363294034282421,1.4788062290764534,0.1576204304788569,2.0155960637696326,1
-0.7576383894003927,-0.3992008543200953,1.1216412448782445,1.6826473379618885,0.5104367278854721,2.136479801815065,1
-0.5322102001904825,-0.498574132142386,0.91865238347622,1.6492646423604282,0.5776138653040797,2.0805000826355293,1
-0.4290736174636128,-0.6130796992113235,0.9474743225816036,1.597565769395361,0.6647256385358361,1.8748356736932152,1
-0.3034928125120142,-0.7388297933682335,0.931833104416816,1.543208104219116,0.7275334327776202,1.7154151800538633,1
-0.181006231854693,-0.8210272361301836,0.7541518031124204,1.4064278127335947,0.7245295772940136,1.659841109953775,1
-0.1152159218599801,-0.7466002925729263,0.6882453189510165,0.9952001563056766,0.6936718721185353,1.5839845393581085,1
0.048291322878952,-0.2272398241728716,0.5314789639168596,0.5824954995780806,0.712241149987493,1.355197773994021,1
0.2615296633065921,0.068427754317568,0.3731289067489335,0.4123323624450262,0.7409142350267595,1.1438540586157804,1
0.3727917551177163,0.0469571229733661,0.271547372430564,0.0377371575482397,0.7728643240930652,0.6582909208523556,1
0.5117259132737157,-0.0794060349276517,0.1052888826982806,-0.1590139549387544,0.7603027527172163,0.4254477510940225,1
0.5587463923931542,-0.23644080544715,-0.0064873741739237,-0.4931363371503502,0.7059603665366208,0.0761830496258951,1
0.5779030013052133,-0.2286703062424573,-0.0411085425473269,-0.7445405942527383,0.6538025333806722,-0.0584927837054404,1
0.5902862391058759,-0.1789836673313119,-0.1335521155538492,-0.803034172944738,0.6158447378212576,-0.076341396370505,1
0.6158278559366587,-0.3172077661395144,-0.1210739824689619,-0.6009654082726442,0.4834020419553258,-0.1238024582969562,1
0.6344042977935409,-0.4137184047850818,-0.0901428400672405,-0.151332980301233,0.3383978373510057,-0.2690251942786143,1
0.6464023427133072,-0.7613221976192822,-0.0694049804901416,-0.0219381065709503,0.2772284287960287,-0.3534004088350228,1
0.6098296260547198,-1.0815257261744642,0.0226872985885264,-0.006871578652705,0.158712742784015,-0.4629259261327232,1
0.5904796281242682,-1.1927582698663874,0.0973804501339231,-0.0727507106254286,0.0729663543410758,-0.4479168769623062,1
0.5904796281242682,-1.234061345828732,0.2116172042303195,-0.0819087872067421,0.0543970719980136,-0.3878806669882946,1
0.6024776730440345,-1.154522187662136,0.2458870786758685,-0.0437993402161284,0.0276354630256308,-0.2548274366209208,1
0.6222144490112707,-1.0443114168770598,0.2817406552551864,-0.0074624213663002,0.0057892527153029,-0.2175076282653445,1
0.616021244955051,-1.04819582896063,0.3193507014737754,0.0078995279087426,-0.0477339652294627,-0.2029042281743749,1
0.60460495224635,-1.0670081757094778,0.3504574908394238,-0.0683193757528767,-0.0723109540656337,-0.2029042281743749,1
0.5943505788038916,-1.003008340914715,0.3829708956457016,-0.1214953555019317,-0.0638455460044452,-0.1935742727623951,1
0.5753873589102247,-0.8666251083763891,0.386662361346596,-0.1773301274621652,-0.0288916059286372,-0.1558488153273712,1
0.5757741369470093,-0.824502939051015,0.3733045537128606,-0.1182457157369621,0.0077007958937514,-0.1339437118678312,1
0.5920283254272952,-0.7811546422374247,0.34430696764355,-0.0632971981667296,0.0167123578704668,-0.1416510643158492,1
0.5910597951794452,-0.8355447865951701,0.3225137865536759,0.0176484568840432,0.0183508240911519,-0.1611222666525325,5
0.5908664061610528,-0.8590589637530658,0.3147810009532455,-0.0148479746470241,0.0137085023868603,-0.1627448696164942,5
0.5924151034640799,-0.8723503867298362,0.3137271191696829,-0.0559116448860058,0.0150738916497818,-0.1603109684936374,5
0.5939622156112184,-0.8510841099670036,0.309157418649153,-0.1256312593372942,0.0328239386454493,-0.1582827164502281,5
0.5929952705192568,-0.7866755660095023,0.2950970231597092,-0.1362664523829876,0.044839351631667,-0.153820563283962,5
0.6049917302831347,-0.7371932816797263,0.2824432431108948,-0.1058379848700912,0.0590393937023052,-0.1493584101176958,5
0.6142807437895201,-0.7363758633542486,0.2784004834821463,-0.0467535634644963,0.0453855100212982,-0.1728861165411976,5
0.629954765214629,-0.7836085722514095,0.2903516756752523,-0.0222335279277479,0.0306393185092373,-0.1874895232783387,5
0.6266639815901826,-0.8422918378554638,0.3081020971363779,-0.0104166446146681,0.0011469310110113,-0.1992533731670039,5
0.6210525297450283,-0.8555832608322342,0.3128474446208348,-0.0384817412731837,-0.0130531021114182,-0.1899234244011956,5
0.6104097931098967,-0.8332952111625548,0.3117935628372721,-0.0532528478346314,-0.0127800251536548,-0.1846499730760343,5
0.6117651013945314,-0.7739988818143922,0.3075751562445966,-0.0600475535615641,-0.007864630965704,-0.1801878199097682,5
0.6162162191293318,-0.7668431213913597,0.3100356534687886,-0.0275511268706926,-0.0111415634070741,-0.1822160719531775,5
0.6146675218263047,-0.8067140402465663,0.329895278226252,-0.011302908685061,-0.0168761929424195,-0.1870838741988912,5
0.5937688265928261,-0.8631494054555578,0.3738329343338544,-0.0133708630228401,-0.0283454520131103,-0.1923573255240524,5
0.5835144531503677,-0.8711225842040676,0.4068732800319136,-0.0485260964454778,-0.0215185146467111,-0.1769426206280162,5
0.5742254396439822,-0.8578328362648496,0.4678573300157207,-0.0641834670773184,-0.0064992417027825,-0.1651787707393511,5
0.5732584945520206,-0.8009887618931194,0.5407925721926338,-0.0777728785311838,0.0251777659316554,-0.1530092651250668,5
0.5691941548540049,-0.7995582798235339,0.5965057735294151,-0.0305053452788646,0.0620432447118075,-0.1582827164502281,5
0.5517796322633651,-0.82286810240006,0.7114451154815201,0.0102629036033194,0.0948125601772993,-0.1607166175730849,5
0.5395897834810949,-0.832273438255708,0.7764719250940757,0.0516220000392946,0.1931205065737745,-0.1708578711439599,5
0.5376543081412832,-0.8353404320138008,0.7900039399625257,0.0256248528783623,0.3209208673131017,-0.1769426206280162,5
0.537460919122891,-0.8106001273676888,0.7692660803854268,0.0076041017117491,0.3870056297890904,-0.1753200176640545,5
0.5415236736650181,-0.8110088365304275,0.7309520065819167,-0.0136662892198336,0.4937789931949628,-0.1741030704257118,5
0.5384278642148526,-0.8347273682696925,0.708984618257328,-0.0136662892198336,0.5574060854216022,-0.1554431662479237,5
0.5175307541372623,-0.8995446213899324,0.6741863631907853,-0.0121891775956497,0.5800715668721593,-0.1416510643158492,5
0.5086285186676617,-0.9330788731851364,0.6537997975415405,-0.0414359645215516,0.6158447378212576,-0.1140668538055288,5
0.4941164165087952,-0.9574104686685097,0.6054680878773353,-0.076886614460791,0.6327755539436348,-0.1018973548374161,5
0.482506734781702,-0.9187656773015191,0.572252095215349,-0.1463108075552817,0.6737372005125516,-0.0779639993344667,5
0.4817331787081326,-0.8715329684043587,0.5546773207181505,-0.1590139549387544,0.7166103947340212,-0.055653233503136,5
0.482506734781702,-0.7876990139539013,0.4794572282809725,-0.1383344067207668,0.7441911674681295,-0.0503797821779747,5
0.4939230274904028,-0.7760441026656381,0.3787539287822385,-0.0703873300906559,0.8135528937042187,-0.052408034221384,5
0.5001146463907341,-0.7825867993445625,0.3247986368139408,-0.0222335279277479,0.8755415197101729,-0.0576814855465453,5
0.515788667815843,-0.8833922342739912,0.2418457587763324,-0.0213472590171592,0.8927454127903134,-0.0548419353442409,5
0.5281734907723941,-0.962727037859218,0.2253248660626966,-0.0774774571743862,0.88919540339118,-0.0313142422130821,5
0.5612620347881428,-1.0279530001421966,0.1822668845039422,-0.1347893407588037,0.8755415197101729,-0.0077865357895803,5
0.5840946202055447,-0.937576349012815,0.0966778622782147,-0.2538444428001904,0.855879929536057,0.0404858442342806,5
0.5991868894195882,-0.8827774954923308,0.0597704039153341,-0.2987486051981288,0.8512376123058697,0.0481931966822987,5
0.620278973671459,-0.8261394507395222,0.0314754057017319,-0.2819095442989019,0.8493260646533168,0.0392688903497664,5
0.6309217103065906,-0.819596754060598,0.0038829953438382,-0.2003730610551214,0.8528760740524505,0.0177694226773308,5
0.6431115590888609,-0.8234811661441681,-0.0128135443337247,-0.1276992136750733,0.8495991460851847,0.0084394672653509,5
0.6771686333524597,-0.8627390212552668,-0.0344310784596717,-0.1123372692402263,0.8375837286248627,0.012090322272722,5
0.6936162108511379,-0.8768478625575143,-0.0463822706527777,-0.1268129447644846,0.7988067021921577,0.0356180286962238,5
0.6945831559430995,-0.8885027738457775,-0.0762595312709363,-0.160786487919736,0.7709527809146167,0.0640135506577824,5
0.6930344586400724,-0.8531293308182494,-0.1172083095333529,-0.1743759042137973,0.770679699482749,0.0680700480984295,5
0.7007747748434308,-0.8242985844696458,-0.1423402226670547,-0.1947600407553791,0.7840605062059925,0.0660418027011917,5
0.7388946036491569,-0.7778832938979625,-0.1869804666303656,-0.2183938122217346,0.7641258390741131,0.0721265521852481,5
0.769467505269917,-0.734945381284663,-0.1910217865299016,-0.2245976558742885,0.7400950041534691,0.0765887053515142,5
0.779143296813087,-0.7175651916429531,-0.185398204225809,-0.2092357259600292,0.6936718721185353,0.0761830496258951,5
0.781852328226468,-0.6975267174058889,-0.185222557261882,-0.1770347061053676,0.6800179884375283,0.0607683513760305,5
0.7948157330823074,-0.6415000613596366,-0.206840091387829,-0.1663995082194782,0.6846603056677155,0.0498157930000889,5
0.8039113575703004,-0.6194180413088786,-0.2154511118078949,-0.1433565843069139,0.6947641799495891,0.0258824242047964,5
0.8195837938395208,-0.6100127054532309,-0.2657149380752983,-0.1141098022212079,0.6933987906866675,-0.0012961305799048,5
0.8453203848445846,-0.6263694471505417,-0.3272273686800993,-0.1046562946027048,0.6838410747944251,-0.0122486823096749,5
0.8480294162579656,-0.6599036989457455,-0.3421659989891786,-0.1043608732459072,0.6554409996013572,-0.0215786377216547,5
0.8422245753944189,-0.7136791045218306,-0.3695827623831452,-0.1220862030557228,0.6442448130143255,-0.0219842868011023,5
0.8501582806161696,-0.6873022881872114,-0.4082466903852969,-0.1915103961502136,0.6365986403005317,-0.0191447365987979,5
0.8635084635087937,-0.6570410597690222,-0.4344339250317738,-0.248231427340644,0.6393294188263748,-0.0219842868011023,5
0.9027902115807622,-0.6104214146159694,-0.4991094407164752,-0.2544352903539816,0.6314101646807131,-0.0329368385308723,5
0.9590981190506976,-0.5813863136859964,-0.5198473002935742,-0.2080540356926428,0.5781600236937109,-0.0637662350306016,5
0.9695474666674366,-0.5954951549882441,-0.5151019528091172,-0.1040654518891096,0.4905020607535927,-0.0824261525007328,5
0.939941510138638,-0.6652202681364537,-0.4792498159590118,-0.025778593889711,0.4522711882364147,-0.0864826499413799,5
0.919044400061048,-0.6842352944291188,-0.4451541487481774,0.0891405994761173,0.4164980128132121,-0.0885109019847892,5
0.9014349032961274,-0.6952771419732736,-0.4386523316244494,0.0855955335141541,0.4353403721140377,-0.0751244491321623,5
0.8822782943840684,-0.685871806117626,-0.4578079287969919,0.0554624873580553,0.4571865868984698,-0.0702566402402771,5
0.8975655377723926,-0.616351047550786,-0.4994607346443294,-0.0160296649144104,0.4872251283122227,-0.0572758364670977,5
0.9041439347095084,-0.5907916495416443,-0.52845832071364,-0.0373000558459932,0.4817635757346408,-0.0434837478273663,5
0.8935011980743769,-0.5819993774301044,-0.5713420950376799,-0.0263694366033063,0.4681096920536338,-0.0491628349396321,5
0.863701852527186,-0.5926325158115208,-0.5720446828933883,0.0149896598326688,0.4421673139545412,-0.0767470454499525,5
0.8451269958261922,-0.5954951549882441,-0.5736269452979448,0.0395096905292213,0.4413480830812508,-0.0921617503459887,5
0.8257769978957408,-0.5930412249742596,-0.5999883871791363,0.0318287158916998,0.4503596450579663,-0.094190002389398,5
0.8201655460505863,-0.5607347757048241,-0.6249446533489109,-0.0009631369961651,0.4672904567062391,-0.0986521555556641,5
0.8130053969024051,-0.5366058597652682,-0.6525370637068046,0.0005139746280187,0.4708404705794768,-0.1035199578013778,5
0.806813778002074,-0.5028689284262473,-0.707546237458665,-0.0027356699771467,0.4672904567062391,-0.1083877600470915,5
0.8013957151753117,-0.4971436500728003,-0.6832925591445989,-0.0145525532902265,0.4446250155226209,-0.11934030513069,5
0.8062336109468968,-0.4867148662727535,-0.6448042781063743,-0.0251877463359199,0.4012056673856243,-0.1355663148317929,5
0.7868836130164454,-0.4223063223152521,-0.5685288641564211,-0.0470489848212939,0.3799056065167192,-0.1497640658433149,5
0.7582446015796085,-0.374869258836722,-0.5495489139478057,-0.1019974927111345,0.3766286785494534,-0.2053381292972318,5
0.6998078297514692,-0.2820386776933559,-0.5945404518389709,-0.1188365584505573,0.4181364790338971,-0.3002602531501342,5
0.6810379988761947,-0.2967605827397117,-0.6917293723299501,-0.0993386956597602,0.4367057613769592,-0.348532606589309,5
0.67097542929624,-0.3660769867251824,-0.7261763334686386,-0.0275511268706926,0.4470827126165962,-0.4154648907909581,5
0.6167963861845087,-0.572185332411718,-0.7962997844935054,0.0073086803549515,0.4446250155226209,-0.4329078477304037,5
0.5618422018433198,-0.7365802179356182,-0.8711685830028291,-0.0195747308763735,0.4451711694381478,-0.4203326930366718,5
0.5500391310978342,-0.7584595584425589,-0.9161601208939942,-0.1099738935456495,0.4402557707760927,-0.3513721567916134,5
0.5372675301044986,-0.7492569021307283,-1.0166877734288011,-0.1601956452061407,0.4298788195364557,-0.3116184473131803,5
0.5401699505362719,-0.7040694140848135,-1.1281112966439388,-0.2136670559923852,0.3826363850425622,-0.2605065370255296,5
0.5510060761897958,-0.692210148215181,-1.1585154981538788,-0.1932829291311951,0.2837822892046645,-0.2377901354070943,5
0.5395897834810949,-0.7251296612287244,-1.142522986061237,-0.1525146705686193,0.2185167307573401,-0.2329223398075522,5
0.5214001196609974,-0.685871806117626,-1.0989380636107011,-0.0656605787015023,0.0912625507781658,-0.245497481208941,5
0.5057260982358884,-0.6797378186014402,-1.0620306052478203,-0.0033265126907419,0.0066084835885933,-0.2811946932467271,5
0.4799910923867133,-0.7441463625589416,-0.97784675873351,0.0084903706223378,-0.014964649763971,-0.2897133504998118,5
0.4890851317188178,-0.803851401069843,-0.9279342263939606,-0.0127800203092449,-0.0329877737174019,-0.2674025913146526,5
0.5045657641255343,-0.8150976031953673,-0.9024510193324048,-0.0594567108479689,-0.0496455084079112,-0.2158850319475542,5
0.5208199526058204,-0.7811546422374247,-0.8499023428047363,-0.0789545687985702,-0.0616609258682332,-0.1927629746035,5
0.5155952787974507,-0.7161330345358152,-0.8056133927692797,-0.0866355434360916,-0.0766801988121619,-0.1720748183823025,5
0.5161754458526276,-0.6911867002707819,-0.7825906829319159,-0.0541391119050242,-0.0742225017181865,-0.1846499730760343,5
0.5150151117422738,-0.6719673193967475,-0.7474411339375189,-0.0290282336546807,-0.071491718718239,-0.196819472044147,5
0.5303007699747095,-0.6723760285594861,-0.7210782523271149,0.027397381019148,-0.0676686323613421,-0.2256206297928101,5
0.5368807520677139,-0.6684916164759158,-0.7105336755746384,0.0723015385768904,-0.0660301661406571,-0.2418466394939129,5
0.533591553599156,-0.6484531422388519,-0.7158059639508767,0.0858909548709517,-0.0624801567415236,-0.2463087860140076,5
0.54694173649178,-0.6449774393180202,-0.7312729748809498,0.0932765081516756,-0.0466416529243046,-0.2592895897871869,5
0.5587463923931542,-0.6367982309505887,-0.7358412356722671,0.0814596248385958,-0.0346262399380869,-0.266996942235205,5
0.5837078421687599,-0.608580548346093,-0.7421688455612806,0.0717106958632952,-0.0351723938536138,-0.2702421415169569,1
0.5788699463971749,-0.5347666685329439,-0.7773183945556775,0.0802779345712095,-0.0433647249570389,-0.295392457550592,1
0.5829327009393022,-0.4556345444915344,-0.8172132910345314,0.1635869798371469,-0.0643916999199721,-0.3886919717933613,1
0.6040247851911731,-0.1583321293501396,-0.8825913945749414,0.2604854171961662,-0.0862379191785085,-0.4803688830721688,1
0.6191186395611051,0.0430727108897958,-0.8792526625311137,0.5922444333935771,-0.158057342508573,-0.7768990912271982,1
0.565904956385447,0.036325659629502,-0.8483200804001799,1.0046536639241797,-0.2331536803835902,-1.1642950055485417,1
0.3033254686176608,-0.2086335070429454,-0.684347880657374,1.1508876082340809,-0.2036612928853641,-1.3573843594896968,1
0.0424864820154054,-0.5460128706584683,-0.6476160692584205,1.1488196538963018,0.0699624988574692,-1.6721688559739247,1
-0.0122743133073911,-0.6578584780944996,-0.7347873538887045,0.8513295876903522,0.4066672199632063,-1.8405136559458088,1
0.1175642203606152,-0.9700871528636194,-1.0769692355568998,0.6528060003047274,0.4965097672467017,-1.8271271964470104,1
-0.0335597865776544,-1.517256594705431,-1.1933137532204214,0.3112980406114281,0.5000597766458352,-1.4474386877430572,1
-0.2580194455397145,-2.0147377225985448,-1.083471052680628,0.010558324960117,0.6196678241781546,-0.43899259721446,1
-0.7806643638361868,-2.471324483692053,-1.5288181708009618,-0.4535497736953566,0.7638527621163497,0.296856713769944,1
-1.1608925364897094,-2.315720195242141,-1.928996664336991,-1.7073211145099856,0.981495652242755,1.8622605189994836,1
-1.6905042149159704,-2.108590076648758,-2.273110662608385,-2.360499404257087,1.0412996581124974,3.1169361324464675,1
-1.4803616839384963,-1.8339827453022293,-2.451671638461628,-2.4866446479027915,0.9544609663126086,3.6102068818586,1
-0.8919264556473111,-1.1299845625598417,-2.419860821511058,-2.605109062116852,0.4618289041286572,4.228417255309031,1
-0.6274114925397131,-0.6926188573779196,-2.20878788058075,-2.465374252131013,-0.235884454435329,4.279934821322301,1
-0.1556580040423026,0.2469314811437159,-1.6957778086597413,-2.382360642742461,-0.5559314542728698,4.1136182733938265,1
0.1105990453867147,0.94909047265378,-1.2071985017459383,-2.138932820355959,-1.099902109791271,3.619536830624408,1
0.1127279097449187,1.241893736929944,-0.9977063834909732,-2.095210348225407,-1.4404298814610703,3.109634429077897,1
0.363310937748827,2.593456412243281,-0.5115875738013625,-1.8266716475885616,-1.5286339625238807,2.722644217005373,1
0.7015499160728885,3.2833457536834216,0.1042350009147179,-0.9811736334691732,-1.56085712854795,1.306925407262503,1
0.8275174990612717,3.3044060008273326,0.3214599047701132,-0.2603437320105214,-1.3874529516549614,-0.3753055122945629,1
0.7899794224666109,3.0357299774531725,0.903889400131068,-0.0033265126907419,-1.3153604513671333,-1.0697785307750869,1
0.4430331828472295,1.8530613385289656,1.7225237495560328,0.4533960375242039,-1.4417952707239918,-2.0052077006028943,1
0.1440743674392481,1.1954784463582606,2.225690392851061,0.8613739380224504,-1.5594917392850285,-2.567844209984554,1
-0.2582128345581068,-0.0685685419648661,1.7538076256148212,0.8194239988728801,-1.4475299002593374,-2.855855794117357,1
-0.4753205405094817,-0.8056922673397194,1.188601610823211,0.5866314130938348,-1.4366069293273032,-3.065982555611084,1
-0.7562830811157579,-0.9220370256409812,1.3383377681126458,0.7048002946265919,-1.1853754839139072,-2.8242150861663897,1
-0.9325619268480256,-1.6877854677455169,0.9838548400527029,0.7476364978465551,-0.883078450538156,-2.6295030295687,1
-0.6247024611263321,-2.7584024696147704,0.7812172725785326,0.4557594132187806,-0.4920312806143627,-1.6879892099494085,1
-0.7168095291812856,-2.649419501355463,0.7915862023670822,0.3402494061805324,-0.3281847211833213,-0.0848600469774182,1
-0.8075612889516043,-2.089369020737172,0.5928143078285208,0.4770298089905593,-0.2427113962758325,0.5804060982132796,1
-0.4648711928927425,-1.5528343923143284,0.4279624335368667,0.9934276233246953,-0.1618804288654699,1.5182691226407434,1
-0.2858833157470937,-1.1868286369315717,0.475590115616151,1.523414970117594,-0.1351188109448784,1.9539374502168052,1
0.1067280947070913,-1.0753917386582783,0.0926351026494661,1.7225293227736798,-0.1280187921466114,2.033444669788526,1
0.2789441858972319,-1.2044131811546506,0.1557283559296111,2.1243033989801563,-0.2768461054783501,2.180290008734145,1
0.2944248183039485,-1.1733328593734318,0.3646935332927948,2.37068543977483,-0.2571845153042342,2.2512787837302706,1
0.3538285352240494,-1.1900999852710334,0.5683849825505275,2.474969594981234,-0.1225572350949251,2.185969115784926,1
0.4749598075967359,-1.0790717961604794,0.3476456996873776,2.6631534832809014,0.1843820215548225,1.9588050464312017,1
0.5461681804182109,-0.8758260896506674,0.2182946683179747,2.034199652827482,0.3310247415949753,1.7689609981105423,1
0.7708228135545517,-0.2503452921680285,0.0256747367044998,1.6259262922508704,0.3804517649063503,1.5929088456906406,1
0.9896710206714576,0.2853719179293369,-0.1799502688856437,0.9878146030249528,0.5350137167216432,1.018508174050253,1
1.0039897338119317,0.3033668463527073,-0.2430435221657886,0.5192751694969274,0.7676758484732468,0.5086060250582599,1
0.9409100403864884,0.104822970251943,-0.4377726570756013,0.3313867412756245,0.878272298236016,0.3435064775375001,1
0.953873445242328,0.0929637043823105,-0.714752082167314,0.0084903706223378,0.9544609663126086,0.1341909942641543,1
0.9602600383169398,0.0596354822060283,-0.8133461783697101,-0.1531055132822145,0.8411337380239962,-0.0309085931336346,1
0.9233005436215675,-0.1070106537880393,-1.0075483723877414,-0.1480833356960674,0.7581181281069,-0.1067651570831298,1
0.8838269916870953,-0.2006586532568831,-1.1992900691815809,-0.179693503156742,0.5907215950695598,-0.1972251277697661,1
0.8687331373171634,-0.2656802609584926,-1.269764814134302,-0.3049524730516622,0.3880979376201442,-0.1765369715485687,1
0.7677270041043861,-0.3235461082370695,-1.272049664394567,-0.3489703858997953,0.2777745827115557,-0.1663957179776937,1
0.6854891166109949,-0.3399045249719327,-1.221258897235382,-0.2875225645986442,0.1079202899427794,-0.2434692424578747,1
0.6760067140862173,-0.3427671641486561,-1.1866362891327664,-0.0999295383733554,0.0077007958937514,-0.4069462401840449,1
0.683360252252791,-0.4634050436962271,-1.119851570151727,-0.0015539797097603,-0.0261608318768984,-0.4714445833858079,1
0.7129662087815895,-0.7566186921726822,-1.0599214019514829,0.0613709290145952,-0.0998917894372026,-0.4633315752121708,1
0.7100637883498162,-0.837590007446416,-0.9857551912978672,-0.0479352488916867,-0.1826343134483266,-0.2921472516226686,1
0.7013549418986078,-0.789742559767595,-0.8692350266704184,-0.1123372692402263,-0.2014766727491522,-0.2069607322611935,1
0.7375408805204106,-0.5212708909748043,-0.8242434887792534,-0.1799889245135396,-0.1758073895042405,-0.1112273036032244,1
0.7659849177829667,-0.4296681123572062,-0.841993910240379,-0.1389252542745579,-0.1083571974983911,-0.129481558701565,1
0.8220994362345095,-0.3871372338690933,-0.8685309990854976,-0.0969753151249875,-0.0886956162724839,-0.16152791573198,5
0.8166813734077477,-0.4108557656083584,-0.8346124185678029,-0.0115983300418586,-0.0826879097793751,-0.2219697814316106,5
0.8056518587358313,-0.4339612336035153,-0.8244191357431805,0.0474860865235403,-0.064937853835499,-0.2402240365299512,5
0.7795300748498717,-0.5204534726493266,-0.8344367716038757,0.0554624873580553,-0.047460883797595,-0.231705385923038,5
0.7714029806097287,-0.5603243915045333,-0.8729250526421002,0.0138079695652825,-0.0081377079234675,-0.1935742727623951,5
0.7735318449679327,-0.5361971506025296,-0.8966517900643851,-0.0671376903256863,0.0104315699454902,-0.1526036160456193,5
0.7795300748498717,-0.4607467591008731,-0.9251224352419144,-0.09077145211165,0.0055161757575395,-0.1485471119588007,5
0.7754657351518559,-0.4206698106267449,-0.9205527347213844,-0.0813179444931469,-0.0234300578251596,-0.171669169302855,5
0.7626957193144088,-0.4212845494084052,-0.9129955960848812,-0.0254831725329134,-0.0422724126518808,-0.2057437783766793,5
0.7551487921294427,-0.4523631961520722,-0.9038576347730342,0.0005139746280187,-0.0403608694734323,-0.217913277344792,5
0.7671452518933207,-0.4650415553847343,-0.919674499901749,0.0265111169487551,-0.0234300578251596,-0.2244036825544675,5
0.7746921790782867,-0.4801721695938292,-0.93830315618251,0.0200118374188159,-0.0193338900363948,-0.2239980334750199,5
0.7884307251635839,-0.5425354927000844,-0.969235738313444,0.0040590405899819,-0.0280723750553468,-0.2183189264242396,5
0.7944289550455228,-0.5795454474161199,-0.9804829029216292,-0.0337549898840301,-0.0471878068398315,-0.1960081738852519,5
0.7950107072565883,-0.5867028828767046,-0.9843500155864504,-0.0482306750886802,-0.0463685759665412,-0.1546318680890286,5
0.8180366816923825,-0.6014247879230605,-1.0244205590292317,-0.042617649948742,-0.0452762681354874,-0.1213685571740993,5
0.8342908701726683,-0.6394565155459427,-1.059218814095774,-0.0151433960038217,-0.0862379191785085,-0.0507854312574223,5
0.823841522555929,-0.7329001604334172,-1.091556571938125,-0.0039173554043371,-0.1796304758611374,-0.0049469855872759,5
0.8149408722422167,-0.7425098508704344,-1.0513103815314169,-0.0074624213663002,-0.2203190275758734,0.0124959713521695,5
0.8288728073459064,-0.7304462304194325,-1.0047365812356952,-0.017802197895392,-0.2610076016611312,0.0579287945275545,5
0.866410883940567,-0.6674681685315167,-0.8975300248840207,-0.0337549898840301,-0.2623729909240527,0.1114745859995475,5
0.9049174907830776,-0.5644148332070251,-0.814050205954631,-0.0399588528973676,-0.2585499000930515,0.1333796961052591,5
0.9335565022199146,-0.4932575629516778,-0.7678276995867637,-0.020756416303564,-0.2489921842008091,0.1512283021241522,5
0.9416835964600576,-0.4746512458217515,-0.7500772781256381,0.0250340053245712,-0.2342459882146439,0.1329740470258116,5
0.9515511918657314,-0.4495005569753487,-0.7138738473476784,0.0421684875805957,-0.2214113398810316,0.12202148864987,5
0.964902959914244,-0.4061522601617583,-0.7049100932705459,0.0557579087148529,-0.1861843228474601,0.1053898365154912,5
0.9734168321911716,-0.3746649042553527,-0.710006734682857,0.0530991116634785,-0.1501380883629113,0.0859186541173225,5
1.0014756765728317,-0.3399045249719327,-0.7240671301723007,0.0530991116634785,-0.1373034310810903,0.0798339046332662,5
1.0121168280520747,-0.3411306524601489,-0.7249453649919363,0.0593029746768161,-0.1203726149587132,0.0891638533990745,5
1.0411426175256964,-0.311686842367437,-0.7418175516334263,0.0489631981477243,-0.1089033558880224,0.08632430319677,5
1.059137307171513,-0.2487087804795213,-0.7569318289064328,0.0465998224531475,-0.1028956449208092,0.0676643990189819,5
1.074424550559837,-0.2253989579029951,-0.7785479233031672,0.0584167106064232,-0.0845994529578235,0.0210146219590827,5
1.0881630966451346,-0.2296937541868564,-0.7934865536122467,0.0814596248385958,-0.0660301661406571,-0.0041356807822092,5
1.123767283055872,-0.2646584880516457,-0.8119410026582933,0.0879589140489268,-0.0630263106570505,0.0039773207452563,5
1.1390545264441962,-0.2824473868560944,-0.821431697627207,0.0728923861306815,-0.0709455648027121,0.0408914933137282,5
1.16382258720141,-0.2456417867214286,-0.8388308251604785,0.0474860865235403,-0.0908802364086958,0.0421084405520708,5
1.1742703496622606,-0.1730540343964957,-0.843574732915723,0.0489631981477243,-0.0987994816061488,0.0266937290098631,5
1.1818172768472266,-0.1689652677315559,-0.8330301561632464,0.0619617765683863,-0.1067187312777061,-0.0029187335438666,5
1.197684687290728,-0.1830741090338037,-0.8100074463258824,0.0613709290145952,-0.1078110435828643,-0.0130599871147415,5
1.2265155025900687,-0.1456554451550296,-0.7887426458570022,0.0457135535425588,-0.1067187312777061,-0.0248238370034067,5
1.245285333465343,-0.1092585541831024,-0.7715191652876578,0.0344875129430742,-0.1127264422449193,-0.0333424942564914,5
1.26947322716738,-0.055278794025648,-0.7358412356722671,0.0336012488726814,-0.1162764516440528,-0.0434837478273663,5
1.2921124235663892,-0.0450543648069705,-0.7245940710640821,0.0276928072161415,-0.1173687594751066,-0.069445342081382,5
1.3037221052934824,-0.039533441034893,-0.7198487235796251,0.0111491676737122,-0.1132725961604462,-0.0962182544328073,5
1.3248141895453531,-0.0123392063747964,-0.7117646440513407,0.0081949492655402,-0.1094495098035493,-0.1112273036032244,5
1.3383593466122583,-0.0111130788865802,-0.7019226551545725,0.0200118374188159,-0.1031687218785726,-0.1448962635976012,5
1.3420353231176008,-0.0217445422304442,-0.6901471099253936,0.0279882285729391,-0.1001648708690704,-0.174914368584607,5
1.343003853365451,-0.0413743073047695,-0.6606211432350891,0.0238523198973807,-0.0960687030803057,-0.1878951723577863,5
1.3437774094390202,-0.0452587193883399,-0.6537680321835069,0.0034681930361908,-0.0769532757699253,-0.2134511308246974,5
1.3441641874758048,-0.0440325919001236,-0.6541193261113611,-0.0039173554043371,-0.0510108931967285,-0.2398183874505036,5
1.343584020420628,-0.0740894657369436,-0.6513075349593148,0.0025819289657979,-0.0376300954216935,-0.2483370380574169,5
1.3497756393209592,-0.1417710330714594,-0.6625546995674998,0.0129217054948897,-0.014964649763971,-0.2511765882597213,5
1.3524846707343403,-0.1677374652057875,-0.6718697475724867,0.0014002386984116,-0.0026761553458855,-0.2373844863276468,5
1.3408749890072469,-0.1941159565779588,-0.6957706922294861,-0.0071670000095026,0.0011469310110113,-0.2288658357207336,5
1.324620800526961,-0.1887993873872507,-0.7258235998115719,-0.0130754416660425,0.0137085023868603,-0.2268375836773243,5
1.3192027377001991,-0.1908429332009444,-0.737950438968605,0.001104817341614,0.0317316263402911,-0.238601440212161,5
1.3209448240216184,-0.2253989579029951,-0.7644889675429359,0.0087857919791354,0.0355547171712924,-0.2402240365299512,5
1.313591285855045,-0.2712011847305701,-0.7662468769114196,0.001104817341614,0.021081602616995,-0.2211584832727155,5
1.3041104684861555,-0.264862842633015,-0.7641376736150818,-0.0231197919981408,0.000327700137721,-0.1984420750081088,5
1.2868877497580196,-0.1973873049174209,-0.7639620266511546,-0.0260740152465087,-0.0037684631769393,-0.196819472044147,5
1.2868877497580196,-0.1566972926991847,-0.7680033465506907,0.0052407260171723,0.0038777095368545,-0.2102059315429455,5
1.2938545098878087,-0.1679434948247091,-0.776440159736042,0.0421684875805957,0.0197162133540734,-0.2171019791858969,5
1.303915494311875,-0.2182431974799625,-0.7894452337127107,0.0418730662237981,0.0227200643635757,-0.2093946267378788,5
1.2965635413011896,-0.2458461413027979,-0.7730999879630018,0.0043544619467795,0.0188969824807831,-0.1793765217508731,5
1.2903719224008583,-0.2337825208517959,-0.7639620266511546,-0.0435039188593308,0.0191700594385465,-0.1501697149227624,5
1.283211773252677,-0.1607860593641244,-0.7613258824630355,-0.0612292438289504,0.0216277565325219,-0.1428680115541919,5
1.2795357967473344,-0.0953557424997762,-0.7789006569602341,-0.0606384011153552,0.0265431507204726,-0.1562544644068188,5
1.2803093528209035,-0.0890157253646689,-0.7941905811971676,-0.0175067716983985,0.0259969968049457,-0.2053381292972318,5
1.2830183842342846,-0.1278665463505809,-0.8101830932898096,0.0081949492655402,0.0229931413213391,-0.2312997368435905,5
1.283211773252677,-0.2053604836659309,-0.8282848086787893,0.0336012488726814,0.0186239010489153,-0.2548274366209208,5
1.2853406376108811,-0.2280572424983492,-0.8360175942792197,0.0117400152275033,0.0128892715135699,-0.2511765882597213,5
1.2903719224008583,-0.2395077992052429,-0.8437518196088626,-0.006871578652705,0.0093392621144364,-0.2434692424578747,5
1.2895967811714004,-0.2296937541868564,-0.8439274665727896,-0.0352321015082141,0.0030584741894598,-0.2130454750990783,5
1.290758700437643,-0.2147674945591311,-0.8384780915034118,-0.0384817412731837,-0.0056800063553878,-0.1883008214372338,5
1.2961767632644048,-0.1945246657406976,-0.8279335147509351,-0.0299145025652694,-0.0119607942803644,-0.1887064705166814,5
1.2950148439981626,-0.2041343561777148,-0.8144014998824852,-0.0118937562388521,-0.0226108224777649,-0.1976307768492137,5
1.294047898906201,-0.2053604836659309,-0.8094805054341011,-0.0012585583529627,-0.0198800484260261,-0.1972251277697661,5
1.3008196848617093,-0.2004542986755138,-0.80438386402179,0.0031727716793931,-0.0155108036794979,-0.1980364259286612,5
1.3073996669547137,-0.1945246657406976,-0.8071956551738362,0.0073086803549515,-0.0108684819752063,-0.199659028892623,5
1.3079798340098905,-0.2065882861916994,-0.8093048584701741,-0.0003722942825699,-0.0157838806372614,-0.1887064705166814,5
1.3079798340098905,-0.2137440466147319,-0.8064930673181279,-0.0124845989524473,-0.020426202341553,-0.1777539187869113,5
1.3087533900834598,-0.1701913952197721,-0.7917300839729756,-0.0310961879924598,-0.0291646828864006,-0.1724804674617501,5
1.313784674873437,-0.1564929381178154,-0.7723974001072934,-0.0254831725329134,-0.0343531585062191,-0.189517775321748,5
1.31320450781826,-0.1460641543177684,-0.6665974591962485,-0.0278465482274902,-0.0338070045906922,-0.2000646779720705,1
1.2686996710938103,-0.0166340026586576,-0.5049086699844949,0.0312378731781046,0.0161662039549399,-0.2564500395848825,1
1.2218725809927644,0.0708816843315527,-0.4836438695156145,0.1910612192614796,0.1849281799444537,-0.4600863759304188,1
1.0842937311213996,0.1303823682610846,-0.5061396384611971,0.2563495085206079,0.2998938878760642,-0.6219407972773134,1
1.0140523033918865,-0.1462685088991379,-0.7084244722783005,0.4152865856933941,0.5385637261207766,-0.9042732344823062,1
0.9265897420901258,-0.5047081196585717,-0.8685309990854976,0.494755133960179,0.7223449571578017,-0.846265263259361,1
0.5012765656569765,-1.8321435540699047,-1.1400624888370448,0.3579747311501521,0.8198336816291952,-0.6381668069784163,1
0.3540219242424417,-2.4641670482314684,-1.8124750599803292,-0.6638903557185671,1.042118893459892,0.3041584171385145,1
0.3422188534969562,-2.302839156465661,-2.3439381412181723,-2.069213201064475,0.9036685224195816,1.750301087286583,1
0.1330448527673318,-1.5788024994862089,-3.0175802411089467,-2.4724643840549394,0.6494332886341441,2.428142234309067,1
0.0306834112699199,-0.6226893896483408,-2.713712433244261,-2.4931439322729267,0.0336431739928439,3.27392293099428,1
0.1879990371085208,-0.1742818369222641,-2.468543825103118,-2.3200265767317005,-0.5242544466384319,3.432126477395288,1
0.6516254313657884,0.4976142511320581,-2.0038654628463144,-2.192404221461812,-0.801155152926218,3.339232598939624,1
0.5931886595376492,1.507708796164933,-1.0991137105746285,-1.871575805146304,-1.375164457236876,3.009033204820386,1
0.55661752803495,2.1546585499542217,-0.7310958881878101,-2.163452855892708,-1.6029110874220247,2.314560199632205,1
0.9143998933078554,3.405007081175392,-0.4787228750672304,-2.158726099663358,-1.5261762654299054,1.6383416555736825,1
1.3337148398590657,4.249683292739968,-0.4852246921909585,-1.6051050588472382,-1.3333835753205645,-0.115689450123319,1
1.4171146466186992,4.206743705089115,-0.2783687181241127,-0.1460153813582882,-1.534641673491094,-1.6778479563785331,1
1.1566624380532284,2.706529822205081,0.7028326553322416,0.7107087362831317,-1.750099943481287,-2.2202022643423343,1
0.7067730047253697,0.2955963471480144,1.2042428289879987,1.6711258760056065,-2.126127876253986,-2.988503382051455,1
0.5244959291111629,-0.8750086713251903,0.8657509732914851,1.2353784066899514,-2.4923251503998096,-3.268401964656792,1
-0.1568183381526564,-1.1616779480851684,0.4574884002271712,0.9059826790635912,-2.669552552346929,-3.1296696272386377,1
-0.1622364009794185,-2.9579681186223814,0.4938689176982705,0.8734862475325238,-2.6848448977745165,-2.263606828828139,1
-0.536466343751002,-4.0533271001753,0.7984393134186644,1.0847130549045598,-2.015531426491217,0.3568928838669263,1
-1.2661563984188946,-3.538055398440184,0.8661022672193393,0.9352294659894932,-1.5668648350410586,1.748678490968793,1
-0.2976879716484676,-1.8020866802330853,0.5430774224528988,1.438037980194269,-0.969917146812149,3.202122658454114,1
0.0713188824706347,-1.784706490591375,0.6033588845809975,1.939664576642452,-0.8647822496269616,3.5055491468680984,1
-0.1134754206944491,-1.7317468283032151,0.8385098568614455,1.897419216136084,-0.867239946720937,3.6690261445942687,1
0.2781706298236626,-0.845360506651109,1.2052967107715613,2.0371538760758496,-0.80989363794517,3.512445201157221,1
0.6887783150795529,-0.6509070722528365,1.209690764328164,2.1736388914104503,-0.4278580299980922,2.998080646444444,1
1.1049974521805974,-0.2842882531259711,1.1664571358054825,2.139665348255199,-0.1454957666586197,2.838254503725645,1
1.319782904755376,0.6102789519311193,1.059250579453808,2.1783656476398,0.4227788007381887,2.4906123520521075,1
1.3441641874758048,0.6920676855303305,0.8678601765878228,2.0956474547678496,0.8561530064938204,2.022492118058756,1
1.325781134637315,0.684911925107298,0.4950984464457603,1.87230833788574,0.9779456428436214,1.8391384683016003,1
1.2915322565112122,0.8503302585755973,0.179630740315823,1.1591594304253936,1.1882155087996655,1.4489029506085809,1
1.2924992016031738,0.76179279867854,-0.0665931893380953,0.0737786502010744,1.3662621371459711,1.0156686238479486,1
1.346486440852401,0.5536409071783106,-0.6056119694832287,-0.6056921645019937,1.3747275452071597,0.8221736208273457,1
1.3439707984574123,0.6538316033260789,-0.7569318289064328,-1.6644849064498264,1.227811766105661,0.5280772340411146,1
1.2812762979128651,0.7744711579112021,-1.060448342843264,-1.7271143938173843,1.0503112200892128,0.3629776333509827,1
1.1773661591124265,0.4471101938954352,-1.4010494018361157,-1.6051050588472382,0.98641105090481,0.3106488223481901,1
1.1707877621753102,0.3702293203241933,-1.5987659748619014,-1.4438047366651643,0.8479606798644996,0.1187762893681181,1
1.271602091525584,0.3518256827380842,-1.6623861690338275,-0.996535582744216,0.5219059914302673,-0.0609266848282972,1
1.338746124649043,0.1412198612238702,-1.4061460432484267,-0.6996364318548001,0.3383978373510057,-0.1197459542101376,1
1.327329831940342,-0.048940451928093,-1.2810134184716993,-0.1888515990988392,0.0740586666462339,-0.1939799218418426,1
1.2770201543523456,-0.3758910317435689,-1.065544984255575,-0.0700919087338583,0.0109777283351214,-0.1883008214372338,1
1.2996593507513552,-0.3165947023954064,-0.9727501173211986,-0.1395160969881531,0.0284546983730254,-0.1655844198187986,1
1.33932629170422,-0.2327607479449491,-0.9673021819810332,-0.3144059806701652,0.0563086151764621,-0.1221798553329944,1
1.4285309393274,-0.0532335731744021,-0.94744255722357,-0.3844210358390347,0.001966166358406,-0.1047369050397205,1
1.4478809372578516,0.060044191368767,-0.9045602226287424,-0.3525154470215625,-0.0381762493372204,-0.1213685571740993,1
1.447687548239459,0.0688364634803067,-0.8998148751442856,-0.2402550265061291,-0.1009841017423607,-0.1822160719531775,1
1.4043430456253634,0.0422552925643183,-0.8467392577248358,-0.1271083661212822,-0.1138187500759731,-0.2219697814316106,1
1.3627406293326871,-0.0781799074394355,-0.7903234685323463,-0.0786591474417725,-0.0895148471457743,-0.2110172297018406,1
1.3735767549862112,-0.1039436600299465,-0.7927839657565382,-0.056502487599601,-0.0256146734872671,-0.1566601134862663,1
1.41982367803208,-0.0894261095649599,-0.8172132910345314,-0.072455284428435,-0.0073184725760728,-0.1444906145181536,1
1.450203190634448,-0.0217445422304442,-0.8170376440706044,-0.1217907768587293,-0.0163300345527882,-0.1440849587925346,5
1.4422694854126972,0.0148550282853,-0.818267172818094,-0.1282900563886685,-0.041180104820827,-0.164773115013732,5
1.4312399707407812,0.078446153917324,-0.8326788622353921,-0.1167686041127782,-0.050737816238965,-0.1822160719531775,5
1.4089875523785562,0.060044191368767,-0.8005167513569685,-0.0697964873770606,-0.0671224784458152,-0.2183189264242396,5
1.392539974879878,0.005858401592391,-0.7855781210478892,-0.0243014822655271,-0.0463685759665412,-0.2418466394939129,5
1.3857666037684813,-0.0579370786210021,-0.7722217531433663,-0.0245969036223247,-0.0272531397079522,-0.2252149807133626,5
1.4018274032303748,-0.0436238827373849,-0.7897965276405647,-0.0378908985595885,0.0063354066308298,-0.1850556221554819,5
1.4180815917106608,-0.0340141923003676,-0.8094805054341011,-0.0402542742541652,-0.0018569199984908,-0.1838386749171392,5
1.4132436959390755,-0.0491448065094624,-0.8126435905140016,-0.0355275228650117,-0.0226108224777649,-0.1846499730760343,5
1.3764791754179844,-0.0644797752999264,-0.7931352596843925,-0.0305053452788646,-0.04909935001828,-0.1956025248058044,5
1.3598382089009138,-0.0663206415698031,-0.7846998862282536,-0.0479352488916867,-0.0406339509053001,-0.2081776794995362,5
1.345324521586159,-0.0464865219141083,-0.7792519508880882,-0.0559116448860058,-0.0291646828864006,-0.2110172297018406,5
1.3519045036791633,-0.0115217880493189,-0.7970023723492138,-0.0532528478346314,-0.0064992417027825,-0.2012816252104132,5
1.3520978926975555,-0.0045687071701036,-0.8135218253336371,-0.0231197919981408,0.0044238634523814,-0.1854612712349294,5
1.3524846707343403,-0.0270611114211524,-0.8356663003513655,-0.011302908685061,0.0038777095368545,-0.1887064705166814,5
1.3528714487711249,-0.0702050536533733,-0.8412913223846704,-0.0195747308763735,-0.0059530877872556,-0.2093946267378788,5
1.3476467749627552,-0.094332294555377,-0.8469149046887631,-0.0621155078993433,-0.0119607942803644,-0.2171019791858969,5
1.335456926180485,-0.1078280721135167,-0.8688837327425644,-0.0848630104551101,-0.0100492511019159,-0.2142624289835925,5
1.3439707984574123,-0.0571179852579723,-0.9070207198529346,-0.1082013605646679,-0.0056800063553878,-0.2114228787812881,5
1.355000313129329,-0.0405568889792921,-0.9210811153423784,-0.0780682998879814,-0.0209723562570799,-0.2073663813406411,5
1.369125637251411,-0.0867678249696059,-0.9360183059222452,-0.0529574264778338,-0.0359916247269042,-0.2008759761309656,5
1.380155151923327,-0.1149838325365493,-0.9216080562341596,-0.0358229442218093,-0.0690340216242637,-0.1887064705166814,5
1.3820906272631386,-0.1104863567088708,-0.9108863927885434,-0.0686147971096743,-0.0960687030803057,-0.1818104228737299,5
1.3847996586765197,-0.1047610783554241,-0.8887433575000278,-0.0910668734684476,-0.1048071880992577,-0.1761313224691211,5
1.3927333638982702,-0.0965818699879923,-0.8778460470904843,-0.1279946350318709,-0.1195533840854229,-0.1582827164502281,5
1.4091809413969485,-0.0775651686577752,-0.8549989842170476,-0.1448336959310978,-0.1438572959638304,-0.1258307103403655,5
1.4200170670504724,-0.0495535156722012,-0.8328545091993192,-0.1463108075552817,-0.1583304194663365,-0.1120386017621195,5
1.4207906231240417,-0.0301281051792451,-0.818091525854167,-0.1327213864210245,-0.1812689241854051,-0.1189346560512425,5
1.4285309393274,-0.0139757180633036,-0.7713435183237308,-0.1093830508320543,-0.1927381877302002,-0.1457075617564963,5
1.4341423911725544,-0.0432151735746461,-0.7108849695024926,-0.0999295383733554,-0.197107428002624,-0.1570657692118854,5
1.435689503319693,-0.0632536478117102,-0.6861043502966451,-0.095793629697797,-0.1995651295707037,-0.1688296191005506,5
1.4430430414862667,-0.0769521049136671,-0.6590403205597452,-0.1126326954372198,-0.2001112834862306,-0.1680183209416555,5
1.4575551436451333,-0.0777711982766968,-0.6430463687378907,-0.1179502895399686,-0.2014766727491522,-0.1680183209416555,5
1.4759381964836231,-0.0902435278904375,-0.6100060230398315,-0.1123372692402263,-0.2143113210827646,-0.164773115013732,5
1.4803893142184237,-0.1053741420995321,-0.5811840839344481,-0.0928394064494291,-0.2265998155008501,-0.1586883655296756,5
1.492772552019086,-0.1239804592294584,-0.5321497864145344,-0.0910668734684476,-0.2260536615853232,-0.1582827164502281,5
1.5039954557093946,-0.1188699196576718,-0.517211156105455,-0.1025883354247298,-0.2154036333879227,-0.1599053194141898,5
1.5217983414927074,-0.1096689383833934,-0.4887405109279257,-0.1073150964942751,-0.2022959036224426,-0.1619335648114276,5
1.5297304615585696,-0.106395915006379,-0.4660676552892036,-0.1034746043353185,-0.1962881971293337,-0.164773115013732,5
1.5349551353669393,-0.1172334079691646,-0.458863250309767,-0.0851584318119077,-0.1864573998052236,-0.1651787707393511,5
1.5457912610204632,-0.1554694901734163,-0.4381239510034556,-0.0777728785311838,-0.1758073895042405,-0.1530092651250668,5
1.5560472196188102,-0.1497442118199694,-0.4233609676583034,-0.0830904774741285,-0.1692535246215003,-0.1465188599153914,5
1.5583694729954063,-0.1268430984061818,-0.4175617383902837,-0.0901806093980547,-0.156418876287888,-0.1465188599153914,5
1.5562406086372025,-0.0810425466161589,-0.4049079583414693,-0.0813179444931469,-0.1498650114051479,-0.1546318680890286,5
1.5552736635452409,-0.0732720474114662,-0.4013935793337146,-0.0390725839867789,-0.1342995755974837,-0.1761313224691211,5
1.555853830600418,-0.0798147440903905,-0.399635669965231,0.0016956600552092,-0.1198264610431863,-0.189517775321748,5
1.562045449500749,-0.0845182495369906,-0.3808299269913302,0.0188301471514296,-0.1151841393388947,-0.1947912266469093,5
1.56475448091413,-0.1223456225785035,-0.3491961967339005,0.043350177847982,-0.1143649084656043,-0.2053381292972318,5
1.5589496400505831,-0.1554694901734163,-0.3354870951723109,0.0259202742351599,-0.1050802650570211,-0.2073663813406411,5
1.5517910760582907,-0.2072013499358076,-0.3128156792628012,-0.0050990456717234,-0.0927917706389356,-0.1992533731670039,5
1.557207553729164,-0.1644661168663254,-0.3061367754459336,-0.0845675890983125,-0.0581109164690998,-0.178565223591978,5
1.569012209630538,-0.1256169709179656,-0.3103551820386092,-0.1262221020508894,-0.0267069857924253,-0.182621721032625,5
1.604423007022883,-0.0744981748996824,-0.335662742136238,-0.1276992136750733,-0.0242492886984499,-0.1935742727623951,5
1.6139038243917725,-0.0742938203183131,-0.3187919952239605,-0.0937256753600179,-0.0485531961027531,-0.2110172297018406,5
1.6040346438302102,-0.0834964766301437,-0.3017441616185433,-0.0367092082922021,-0.0676686323613421,-0.2244036825544675,5
1.5839110898261894,-0.1292970284201666,-0.2767878954487687,-0.0172113503416009,-0.0646647768777355,-0.2288658357207336,5
1.5808152803760238,-0.1740774823408946,-0.2672972004798548,-0.0101212232578705,-0.042818571041512,-0.2219697814316106,5
1.5846846458997583,-0.1706001043825109,-0.2695820507401197,-0.0275511268706926,-0.022064668562238,-0.2089889776584313,5
1.5959091347459555,-0.1421797422341982,-0.2952409047656028,-0.0352321015082141,-0.0223377455200014,-0.2029042281743749,5
1.5982298029666635,-0.1540390081038306,-0.3066651560669274,-0.0293236598516742,-0.0329877737174019,-0.2016872742898607,5
1.585653176147609,-0.1777575398430956,-0.2961191395852383,-0.0110074873282633,-0.0480070421872262,-0.2045268311383367,5
1.5800417243024545,-0.1806201790198191,-0.2906712042450729,-0.0039173554043371,-0.0359916247269042,-0.2102059315429455,5
1.57346174220945,-0.175303609829111,-0.2962962262783779,-0.0012585583529627,-0.0231569763932918,-0.2106115739762215,5
1.584297867862974,-0.1575147110246623,-0.3070164499947816,0.0034681930361908,0.0025123202739329,-0.2053381292972318,5
1.597262857874702,-0.1493355026572305,-0.3165071449636955,0.0108537463169146,0.010704651377358,-0.2000646779720705,5
1.6171930228603304,-0.1558781993361551,-0.3330265979481189,0.0138079695652825,0.0038777095368545,-0.2008759761309656,5
1.5935868813693594,-0.2170153949541941,-0.325996400203397,0.0108537463169146,-0.0130531021114182,-0.2029042281743749,5
1.5802351133208468,-0.2368495146098888,-0.3210754057550129,-0.0228243706413431,-0.0037684631769393,-0.1943855709212902,5
1.5763641626412237,-0.2106770528566391,-0.3365424166850861,-0.0417313858783492,0.0066084835885933,-0.1838386749171392,5
1.5993917222329062,-0.1550607810106775,-0.364486120970834,-0.0464581421076987,0.0169854348282303,-0.1700465663388932,5
1.6063568972068067,-0.13686317304349,-0.3711635850584892,-0.017802197895392,0.0066084835885933,-0.1720748183823025,5
1.5959091347459555,-0.1346135976108747,-0.3746794037954564,-0.0018494059067538,-0.0015838430407274,-0.1765369715485687,5
1.589715930689736,-0.1528112055780622,-0.371691965679483,0.0117400152275033,-0.0152377267217345,-0.1793765217508731,1
1.5964893018011326,-0.1552651355920468,-0.3688801745274368,-0.0050990456717234,-0.0193338900363948,-0.178565223591978,1
1.600745445361652,-0.1180508262946422,-0.3653643557904696,-0.0183930406089872,-0.0193338900363948,-0.1818104228737299,1
1.5823639776790508,-0.0143844272260423,-0.3556980138576285,-0.0275511268706926,-0.0228838994355283,-0.2106115739762215,1
1.5759773846044387,0.0809000839313086,-0.3602677143781583,0.0474860865235403,-0.0324416153277707,-0.3233822972018454,1
1.5697857657041074,0.307455613017647,-0.4036784295939795,0.1570876954670118,-0.0417262587363539,-0.4345304440481938,1
1.526634652108404,0.5041586228485347,-0.4274037272870519,0.5207522811211114,-0.0652109352673667,-0.7639182874540189,1
1.4896767425689204,0.6258182753029526,-0.4270524333591976,1.0279920091935415,-0.076134044896635,-1.1971526673840232,1
1.3370040383276236,0.7460491207253371,-0.3825878363598138,1.3482296553983926,-0.0570186041639416,-1.4348635330493251,1
1.0399822834153425,0.4094871754352918,-0.3070164499947816,2.0788083938686226,0.1150203087410464,-1.886352214600871,1
0.8675728032068095,0.0211933703828551,-0.2936586423610463,2.413521647834989,0.4784866432932707,-2.249409071170445,1
0.4635435148880349,-0.9584322415753566,-0.3087743593632652,2.32075910463094,0.6936718721185353,-2.418970618995526,1
0.2338591821176052,-1.5287054763747725,-0.5718690359294611,1.6988955561475203,1.1215844895037503,-2.8165077337183715,1
0.420974153503397,-1.8789675538043271,-0.9405880064427752,0.5446814691040686,1.2592156967823351,-2.665200241606485,1
0.916915535702844,-3.235640768689451,-1.823195283696733,-0.0786591474417725,1.1674616063203918,-1.8729656620556712,1
-0.74331809110403,-3.695500553159973,-2.273110662608385,-0.9014096638455904,1.1368768394054425,1.330453113686005,1
-2.065314324742731,-3.106006262448971,-2.702815122834718,-2.1480909066176648,1.5896395270586965,4.5330604915762125,1
-2.7361808295456997,-1.1890782123641863,-3.802471656980144,-2.769068336236569,1.7212629562585031,5.4141325518346175,1
-1.4571423204843097,0.0036088261597757,-3.887358091350164,-3.238789198661402,1.29389655990038,5.931336450718382,1
-0.8408432219857453,0.2710587220457198,-3.7116103463781775,-3.013087001336666,0.3108169975053324,5.550836637209362,1
-0.1115399453546375,0.8429684685336432,-2.7089670857598045,-2.8361291536364828,-0.2265998155008501,5.168714227382553,1
0.4670261023749852,1.520998544104151,-1.3704681136330357,-2.6966899150535144,-0.9243131785389406,4.260869261418894,1
