timestamp,ax,ay,az,gx,gy,gz
76,0.205933,-0.350464,0.906982,2.319336,3.845215,0.183105
93,0.214600,-0.355103,0.922729,2.075195,3.845215,0.244141
110,0.216675,-0.355103,0.922119,1.525879,2.685547,0.427246
127,0.217285,-0.349731,0.917603,1.770019,2.258301,0.610352
144,0.217773,-0.346924,0.911743,2.929687,1.464844,1.281738
161,0.219360,-0.347778,0.910767,3.967285,0.671387,1.464844
178,0.223877,-0.352295,0.912231,3.906250,0.244141,1.525879
195,0.224365,-0.352661,0.916260,1.953125,-0.061035,1.770019
212,0.223389,-0.346924,0.917480,-1.037598,0.488281,2.197266
229,0.222412,-0.332275,0.922485,-1.342773,0.549316,2.136230
247,0.224121,-0.327515,0.929932,0.549316,-0.244141,1.281738
264,0.221313,-0.337036,0.932739,2.990722,-1.525879,0.000000
281,0.218750,-0.346558,0.934082,3.784179,-1.770019,-0.854492
298,0.215210,-0.358643,0.932861,2.990722,-1.098633,-0.793457
315,0.215698,-0.350952,0.931519,0.122070,0.549316,0.000000
331,0.217773,-0.344238,0.929932,-0.488281,1.220703,0.427246
348,0.220581,-0.335571,0.928711,0.427246,1.220703,0.183105
365,0.218872,-0.339233,0.922607,2.319336,1.708984,-0.671387
382,0.218262,-0.343384,0.917114,2.929687,1.831055,-0.732422
399,0.219604,-0.346924,0.909302,2.685547,1.281738,-0.610352
416,0.217651,-0.351440,0.911743,1.892090,-0.488281,-0.793457
434,0.216187,-0.353882,0.912598,0.183105,-0.915527,-0.671387
451,0.214844,-0.353638,0.911621,-1.647949,-0.793457,0.366211
468,0.213867,-0.340576,0.912109,-1.708984,-0.854492,0.732422
486,0.215088,-0.338257,0.909668,-0.366211,-0.610352,0.183105
503,0.218262,-0.341675,0.908936,0.061035,-1.342773,-0.671387
521,0.220825,-0.346924,0.910034,-0.427246,-2.380371,-0.793457
539,0.221313,-0.349854,0.919312,-1.586914,-4.272461,-0.732422
556,0.219604,-0.347534,0.933472,-1.770019,-4.333496,-0.549316
574,0.218262,-0.347534,0.940186,-0.610352,-3.112793,-0.366211
592,0.218018,-0.348877,0.942749,0.427246,-1.220703,-0.122070
609,0.218872,-0.349976,0.936646,0.427246,-0.549316,-0.061035
626,0.217163,-0.349731,0.935669,0.183105,-0.488281,-0.122070
643,0.217041,-0.350220,0.935303,0.305176,-0.915527,-0.244141
660,0.216919,-0.349609,0.936035,0.549316,-0.854492,-0.427246
677,0.213257,-0.350220,0.936890,1.098633,-0.244141,-0.427246
694,0.213989,-0.350830,0.935669,1.647949,0.671387,-0.366211
711,0.219116,-0.353149,0.931030,2.014160,1.220703,-0.488281
728,0.219971,-0.354614,0.929443,2.441406,1.708984,-0.427246
744,0.219727,-0.352905,0.928467,1.831055,1.464844,0.305176
763,0.217407,-0.351807,0.925293,1.342773,1.403808,0.488281
781,0.216553,-0.345947,0.923828,0.366211,1.464844,0.671387
799,0.216797,-0.342651,0.923218,0.488281,1.525879,0.793457
816,0.216309,-0.342896,0.922363,1.586914,1.770019,0.610352
832,0.217651,-0.341797,0.919434,2.136230,1.770019,0.488281
849,0.218262,-0.348511,0.918091,2.441406,1.647949,0.488281
865,0.218384,-0.348511,0.916504,0.793457,1.770019,0.915527
882,0.218018,-0.337646,0.915405,0.244141,1.586914,0.793457
898,0.217407,-0.333374,0.916626,0.366211,1.037598,0.244141
914,0.216187,-0.333252,0.918823,2.258301,1.403808,-0.671387
931,0.218384,-0.341064,0.922119,3.417969,1.831055,-1.159668
947,0.220093,-0.348877,0.920776,3.906250,2.197266,-1.525879
964,0.222656,-0.354370,0.917114,2.868652,2.136230,-1.464844
980,0.221558,-0.353760,0.915894,0.976562,1.464844,-1.098633
997,0.220459,-0.349609,0.916260,0.976562,0.000000,-0.488281
1013,0.220459,-0.343750,0.918945,1.708984,-0.427246,-0.610352
1029,0.223877,-0.348999,0.917969,2.136230,-0.244141,-1.342773
1046,0.224121,-0.350464,0.917603,1.281738,-0.122070,-1.342773
1062,0.223389,-0.352783,0.916748,1.220703,-0.549316,-1.220703
1079,0.223511,-0.352783,0.915771,1.159668,-1.770019,-0.915527
1095,0.221802,-0.353027,0.917358,0.976562,-2.258301,-0.915527
1112,0.221436,-0.356689,0.921265,0.549316,-2.746582,-1.037598
1128,0.220581,-0.356812,0.920044,-0.122070,-2.502441,-0.854492
1145,0.217773,-0.355713,0.914551,-0.305176,-2.197266,-0.732422
1161,0.216553,-0.362305,0.917725,0.305176,-1.403808,-0.427246
1178,0.219604,-0.362793,0.921509,0.366211,-1.647949,0.061035
1195,0.220703,-0.358032,0.925293,0.183105,-2.319336,0.183105
1211,0.216675,-0.355713,0.926514,0.427246,-3.173828,0.305176
1228,0.214844,-0.357666,0.928223,0.793457,-2.136230,0.305176
1245,0.211182,-0.361084,0.936035,0.732422,-0.915527,0.366211
1261,0.215942,-0.357666,0.933350,0.305176,1.708984,1.098633
1278,0.217651,-0.353638,0.927979,0.610352,2.258301,1.342773
1294,0.221558,-0.348633,0.920532,1.586914,1.525879,1.220703
1310,0.220215,-0.352295,0.921387,3.601074,-0.244141,0.732422
1327,0.213501,-0.362427,0.928833,1.647949,-0.244141,0.854492
1344,0.212036,-0.355347,0.933350,0.244141,0.305176,1.159668
1360,0.213867,-0.350586,0.932495,-0.061035,2.136230,1.464844
1377,0.217407,-0.343384,0.932861,1.037598,2.624511,1.342773
1394,0.219238,-0.343994,0.936279,3.601074,2.197266,0.854492
1410,0.217773,-0.350098,0.936646,4.333496,2.014160,0.427246
1427,0.215698,-0.361206,0.935791,3.601074,2.380371,0.244141
1443,0.221558,-0.360596,0.935425,2.197266,2.929687,0.305176
1459,0.224243,-0.358276,0.933350,2.624511,1.770019,0.671387
1476,0.222290,-0.351807,0.933838,3.723144,0.793457,0.671387
1493,0.218506,-0.353638,0.931274,7.568359,-0.305176,0.305176
1510,0.219849,-0.356934,0.926880,11.413573,0.488281,0.183105
1527,0.222046,-0.364258,0.925171,13.000487,0.976562,0.305176
1543,0.219482,-0.391357,0.935669,14.648437,2.380371,1.403808
1560,0.218994,-0.397583,0.938354,10.681151,5.981445,2.502441
1576,0.224609,-0.388184,0.932739,8.666992,7.812500,2.075195
1593,0.232544,-0.388306,0.926880,7.324218,9.887695,0.671387
1609,0.234009,-0.387939,0.924438,9.033203,10.314940,0.549316
1625,0.234131,-0.391602,0.920898,10.498046,10.375976,0.915527
1642,0.235718,-0.393433,0.917847,13.305663,10.742187,1.831055
1658,0.239502,-0.400146,0.915894,13.977050,11.108397,2.258301
1675,0.241577,-0.399414,0.911621,13.122558,12.023925,2.929687
1691,0.241943,-0.397095,0.906250,11.535644,13.183593,3.417969
1707,0.243652,-0.392700,0.891968,11.718749,13.854980,3.662109
1724,0.246826,-0.390869,0.886719,14.282226,14.770507,4.577637
1740,0.246704,-0.391235,0.888550,19.653320,15.747069,5.920410
1756,0.246582,-0.395264,0.890869,22.766111,16.784668,6.530761
1773,0.251831,-0.402954,0.884644,27.343748,18.920898,7.263183
1789,0.280029,-0.416260,0.873535,27.648924,19.470215,7.568359
1805,0.309204,-0.412231,0.875854,25.634764,18.981934,9.338379
1822,0.321411,-0.403076,0.882446,25.085447,17.456055,11.718749
1838,0.344116,-0.375732,0.902222,26.916502,17.333984,12.390136
1855,0.362671,-0.359497,0.896240,34.973145,21.118162,12.207030
1871,0.369873,-0.363037,0.882690,45.349117,25.817869,9.094238
1887,0.389771,-0.400146,0.854370,48.156734,27.099607,7.507324
1904,0.400269,-0.423706,0.840210,44.616695,28.442381,6.469726
1921,0.421753,-0.447876,0.810547,32.897949,29.296873,7.751464
1937,0.444458,-0.455200,0.781616,26.123045,29.174803,8.789063
1953,0.451416,-0.456055,0.776001,15.747069,26.306150,10.375976
1969,0.467407,-0.442017,0.777710,13.854980,23.559568,10.681151
1986,0.469604,-0.442749,0.787109,15.930175,16.113281,10.803222
2002,0.466919,-0.451294,0.795288,19.287109,9.277344,10.009766
2018,0.455811,-0.477661,0.808350,19.409180,7.873535,9.582520
2035,0.444946,-0.501343,0.807373,15.930175,8.972168,9.643555
2052,0.435547,-0.538818,0.799683,10.070800,9.826660,10.803222
2069,0.434082,-0.541016,0.795532,7.812500,9.643555,11.901855
2085,0.431763,-0.535400,0.795898,6.713867,7.690429,13.000487
2102,0.418091,-0.535400,0.802368,8.483887,5.981445,12.329101
2118,0.413696,-0.539551,0.800293,15.075683,2.746582,10.314940
2135,0.410645,-0.537354,0.792603,23.437498,1.770019,9.277344
2151,0.394043,-0.557007,0.781006,27.343748,1.525879,7.995605
2168,0.379150,-0.582886,0.791138,30.029295,-2.929687,3.112793
2185,0.370361,-0.590820,0.803345,26.550291,-10.925292,-2.197266
2202,0.347900,-0.605469,0.833740,24.414061,-13.854980,-4.150391
2219,0.348022,-0.614380,0.853027,21.240232,-15.319823,-5.004883
2235,0.352661,-0.611694,0.849731,21.911619,-8.483887,-5.676269
2252,0.361206,-0.619019,0.823975,23.742674,-3.723144,-7.934570
2269,0.355835,-0.671021,0.786621,26.489256,2.136230,-14.343261
2285,0.340454,-0.706909,0.771118,21.484373,3.845215,-16.723633
2302,0.327271,-0.719971,0.748901,18.249512,2.502441,-16.113281
2319,0.361084,-0.664185,0.758545,20.568846,-9.094238,-11.962890
2336,0.375244,-0.635254,0.780884,34.729004,-28.259275,-6.958007
2352,0.380005,-0.605957,0.811768,41.931149,-35.888672,-6.835937
2369,0.351685,-0.618896,0.802856,50.659176,-40.954586,-11.230468
2386,0.337646,-0.643433,0.795532,47.302242,-36.682129,-15.869140
2403,0.333740,-0.693481,0.766968,41.503902,-33.691406,-17.150879
2420,0.339844,-0.705933,0.708984,26.489256,-27.587889,-18.493652
2437,0.337402,-0.700195,0.682495,17.883301,-26.611326,-18.249512
2454,0.331421,-0.672119,0.665039,18.127441,-29.174803,-16.418457
2470,0.331421,-0.624878,0.648193,25.939939,-35.705566,-11.352538
2487,0.321777,-0.638062,0.644653,34.729004,-42.358395,-8.300781
2504,0.271729,-0.729248,0.658691,34.301758,-46.447750,-8.056641
2521,0.231201,-0.776855,0.672974,19.531250,-51.330563,-6.408691
2538,0.216309,-0.767700,0.668457,-4.089355,-48.217770,-1.281738
2555,0.195923,-0.687622,0.647705,-10.375976,-42.236324,0.732422
2572,0.191162,-0.608887,0.627686,-2.990722,-39.978027,0.061035
2589,0.192505,-0.596802,0.629639,23.742674,-41.564938,-1.403808
2605,0.194824,-0.631226,0.663452,42.175289,-56.579586,-0.244141
2622,0.183594,-0.666870,0.699585,41.381832,-65.673828,0.976562
2638,0.177612,-0.659302,0.705444,23.803709,-74.707031,5.676269
2656,0.149292,-0.632202,0.722290,2.746582,-70.068359,8.361816
2673,0.117920,-0.589722,0.733765,-3.662109,-63.415524,5.920410
2690,0.092163,-0.611328,0.720215,-2.014160,-46.813961,-4.394531
2706,0.088623,-0.633179,0.714966,13.732909,-36.071777,-11.047362
2723,0.104004,-0.680298,0.707520,21.972654,-33.935547,-10.131835
2740,0.118530,-0.704468,0.708130,32.104492,-36.499023,-3.234863
2757,0.119873,-0.764038,0.720459,27.282713,-46.020504,3.723144
2773,0.081299,-0.811035,0.745605,18.859863,-49.072262,7.568359
2790,0.057495,-0.809204,0.749146,-0.915527,-47.241207,17.150879
2807,0.030273,-0.772339,0.739380,-6.896972,-39.794922,23.132322
2824,0.035522,-0.746582,0.708252,-2.746582,-36.010742,24.353025
2840,0.040039,-0.749512,0.690308,10.498046,-31.249998,28.625486
2857,0.062500,-0.763916,0.685303,17.028809,-31.494139,32.470703
2873,0.085327,-0.772339,0.715332,21.179197,-40.283199,43.090816
2890,0.078613,-0.759766,0.736816,6.835937,-53.161617,52.795406
2906,0.049438,-0.688721,0.764893,-2.990722,-56.274410,55.603024
2923,0.024780,-0.606323,0.768921,-13.488769,-52.124020,54.687496
2940,0.021729,-0.580200,0.761475,-5.981445,-38.269043,46.936031
2957,0.029053,-0.571899,0.729492,1.220703,-31.249998,43.029781
2974,0.052979,-0.585205,0.706299,17.333984,-23.559568,39.428711
2991,0.062744,-0.602295,0.699341,27.526854,-25.817869,39.855957
3007,0.070557,-0.648804,0.688354,24.414061,-29.479979,40.771481
3023,0.067627,-0.656372,0.672241,4.577637,-37.048340,42.419430
3040,0.068604,-0.641235,0.667847,-12.084960,-41.259762,45.654293
3057,0.068359,-0.600464,0.659790,-14.221190,-41.564938,48.156734
3073,0.064331,-0.581177,0.656372,-6.835937,-39.855957,50.537106
3090,0.062866,-0.588257,0.658569,8.056641,-38.635254,49.316402
3107,0.051636,-0.627319,0.653198,13.061522,-38.818359,48.950191
3123,0.035645,-0.659546,0.645630,13.916015,-40.954586,48.950191
3140,0.030029,-0.667358,0.645874,8.178711,-45.410152,49.072262
3156,0.020752,-0.670776,0.655518,5.615234,-47.668453,48.950191
3173,0.021118,-0.686401,0.667847,4.516602,-50.537106,47.058102
3190,0.018799,-0.696533,0.674927,7.263183,-52.917477,46.386715
3206,0.009155,-0.714233,0.689331,9.338379,-53.771969,47.119137
3223,0.014404,-0.736816,0.711060,12.451171,-55.847164,47.485348
3240,0.020142,-0.747314,0.725220,12.329101,-60.363766,47.668453
3257,0.038330,-0.750977,0.752075,10.803222,-62.438961,49.316402
3274,0.062988,-0.717773,0.766846,5.126953,-63.049313,54.443356
3290,0.073242,-0.689087,0.765991,1.770019,-58.166500,59.753414
3307,0.074219,-0.631104,0.743408,2.441406,-53.344723,61.218258
3324,0.065308,-0.612915,0.729004,3.967285,-42.602535,57.739254
3341,0.046631,-0.617432,0.701172,0.000000,-36.743164,46.386715
3357,0.033569,-0.658936,0.683594,-3.173828,-36.254883,40.466305
3373,0.033325,-0.681396,0.686035,-6.774902,-41.381832,32.348633
3390,0.049072,-0.723267,0.714111,-6.286621,-46.142574,30.273436
3407,0.062500,-0.742554,0.752563,-2.563476,-53.955074,29.907225
3424,0.065552,-0.740356,0.767456,1.586914,-54.992672,32.531738
3441,0.080200,-0.724243,0.769653,2.441406,-52.551266,33.996582
3457,0.090332,-0.705566,0.751831,1.770019,-43.518063,36.071777
3474,0.099365,-0.690918,0.744507,-0.305176,-36.682129,37.597656
3491,0.101196,-0.662964,0.736816,-1.647949,-34.851074,37.658691
3507,0.088013,-0.657593,0.748657,-4.394531,-32.043457,36.499023
3524,0.083130,-0.655518,0.760498,-7.934570,-30.883787,35.156250
3541,0.070190,-0.637085,0.786011,-10.131835,-30.944822,34.362793
3558,0.044678,-0.614014,0.812622,-14.770507,-31.738279,31.433104
3575,0.035767,-0.610352,0.826294,-17.700195,-29.968260,27.709959
3591,0.031372,-0.599854,0.842041,-18.737793,-27.343748,25.634764
3608,0.030884,-0.575195,0.849487,-15.991210,-20.507811,20.507811
3625,0.033325,-0.573853,0.848633,-4.211426,-12.084960,13.244628
3641,0.044189,-0.595947,0.830811,2.502441,-7.568359,9.765625
3658,0.053223,-0.631348,0.799927,10.925292,-1.220703,5.798339
3675,0.056885,-0.646484,0.788330,11.474608,1.159668,5.371093
3691,0.055786,-0.661377,0.774902,9.582520,1.525879,6.408691
3708,0.050537,-0.657837,0.758057,3.723144,3.173828,8.178711
3725,0.053711,-0.650146,0.743896,0.122070,6.042480,7.873535
3742,0.062988,-0.629028,0.723389,0.549316,6.835937,7.873535
3758,0.069336,-0.623413,0.727417,4.882812,4.943848,6.774902
3775,0.072021,-0.638916,0.729736,6.408691,2.624511,4.577637
3791,0.077026,-0.669067,0.722290,4.638672,2.929687,4.272461
3807,0.079590,-0.675171,0.717285,0.793457,5.126953,5.493164
3824,0.078613,-0.679810,0.711182,-2.197266,5.065917,6.591796
3840,0.076050,-0.681885,0.713623,-3.356933,3.845215,6.408691
3857,0.079224,-0.686157,0.713013,-5.249023,0.488281,6.530761
3874,0.094360,-0.692139,0.712769,-5.737304,-3.601074,9.155273
3891,0.094849,-0.682739,0.738770,-5.554199,-5.371093,10.375976
3908,0.085693,-0.680786,0.752197,-5.859375,-6.164550,10.253905
3925,0.078979,-0.679321,0.754517,-7.202148,-4.150391,10.253905
3941,0.095459,-0.652344,0.745972,-6.774902,-3.173828,11.230468
3958,0.109619,-0.632080,0.747314,-0.732422,-2.746582,12.878417
3975,0.128540,-0.609741,0.754883,8.117676,-2.929687,12.207030
3991,0.121216,-0.599609,0.766968,11.657714,-2.502441,11.474608
4008,0.110962,-0.601929,0.772827,14.892577,0.305176,8.666992
4024,0.088501,-0.632812,0.774902,13.671874,2.868652,6.835937
4041,0.082642,-0.657471,0.755981,5.737304,8.972168,4.394531
4058,0.088989,-0.656128,0.749390,-0.183105,11.718749,3.234863
4074,0.103760,-0.654297,0.745483,0.854492,10.681151,2.563476
4090,0.111328,-0.669678,0.747070,7.995605,5.981445,1.831055
4107,0.113159,-0.680542,0.747803,14.831542,2.197266,3.967285
4123,0.111816,-0.692505,0.745972,17.211914,1.647949,5.676269
4140,0.102051,-0.702637,0.736572,19.165039,3.173828,8.117676
4156,0.100464,-0.711426,0.728394,13.854980,5.859375,8.239746
4173,0.111572,-0.728149,0.717041,9.948730,6.164550,8.605957
4189,0.121338,-0.726318,0.720337,3.967285,1.708984,12.878417
4206,0.119629,-0.690552,0.747192,4.150391,-5.126953,17.333984
4222,0.103394,-0.660400,0.754517,6.591796,-5.432128,17.272949
4239,0.104980,-0.651123,0.743652,11.047362,-0.854492,15.197753
4255,0.116089,-0.635132,0.729736,12.878417,0.549316,13.916015
4272,0.129028,-0.662476,0.735229,13.916015,-0.610352,11.230468
4288,0.132935,-0.677246,0.738037,5.798339,-2.807617,9.704590
4305,0.141357,-0.679810,0.736084,-0.122070,-2.929687,9.582520
4321,0.143921,-0.645508,0.730835,-8.605957,-2.197266,9.033203
4338,0.142090,-0.625244,0.728638,-5.920410,-1.342773,5.676269
4354,0.141846,-0.614502,0.720459,-1.342773,-0.427246,3.234863
4371,0.155640,-0.637207,0.702148,7.568359,1.831055,-1.281738
4388,0.162598,-0.651855,0.696045,10.925292,1.220703,-4.211426
4405,0.170410,-0.681274,0.693970,10.620116,0.183105,-5.065917
4421,0.171631,-0.690796,0.693848,7.568359,-0.488281,-5.249023
4438,0.166382,-0.695557,0.695679,4.150391,-0.427246,-4.394531
4454,0.154541,-0.699341,0.704834,2.868652,-0.610352,-4.638672
4471,0.148560,-0.699463,0.708130,1.647949,-0.854492,-5.859375
4488,0.142212,-0.698730,0.711914,4.638672,-0.488281,-6.958007
4505,0.138550,-0.703857,0.715088,7.202148,-0.671387,-7.263183
4521,0.139282,-0.704590,0.715942,14.282226,-1.831055,-8.117676
4538,0.141602,-0.703003,0.711914,24.841307,-2.929687,-8.422852
4555,0.147705,-0.698242,0.707642,31.066893,-3.540039,-8.117676
4572,0.153076,-0.697876,0.703979,42.724606,-5.249023,-7.995605
4588,0.162720,-0.685547,0.692993,52.124020,-7.751464,-9.643555
4605,0.152100,-0.644043,0.675537,60.485836,-9.094238,-12.390136
4622,0.142090,-0.605713,0.660522,95.092766,-12.145995,-24.414061
4638,0.105469,-0.526733,0.611450,128.845215,-13.305663,-34.667969
4655,0.084473,-0.552368,0.523193,229.492172,-15.869140,-61.279293
4672,0.078491,-0.605347,0.453247,357.665985,-28.076170,-89.416496
4688,0.030762,-0.737549,0.234253,429.809540,-39.550781,-104.797356
4705,-0.074341,-0.925415,-0.102051,605.651855,-63.110348,-136.657715
4722,-0.127075,-1.056152,-0.299927,824.401794,-44.799801,-151.062012
4738,-0.156128,-1.623779,-0.859009,873.535095,-22.888182,-140.747070
4755,-0.173950,-2.250000,-0.906250,695.617615,-3.234863,-61.889645
4772,-0.263062,-2.351318,-0.820557,225.219711,34.484863,62.133785
4789,-0.404419,-1.838257,-0.978516,-16.235352,60.302731,124.206535
4806,-0.456177,-1.425171,-1.152466,-297.302246,86.791985,255.859360
4822,-0.467896,-1.368530,-1.261597,-504.882782,60.241695,389.892548
4839,-0.470825,-1.053467,-1.388428,-632.568359,22.155760,444.519012
4856,-0.338013,-0.523193,-1.241089,-783.691345,-87.280266,525.817871
4873,-0.297119,-0.197998,-1.122681,-828.796326,-214.477524,566.894531
4889,-0.306519,0.544189,-0.813721,-829.650818,-271.850586,560.180664
4906,-0.303833,1.096558,-0.495728,-799.987732,-355.468719,488.098114
4923,-0.282837,1.475952,-0.299194,-737.976013,-401.000946,348.327606
4939,-0.139893,2.132935,0.108398,-604.614258,-411.926239,248.352036
4956,-0.213257,2.296143,0.594116,-227.905258,-415.161102,-33.264160
4973,-0.355835,2.142578,0.880493,58.959957,-356.506317,-277.587891
4989,-0.616211,1.033325,1.288574,138.305664,-330.139130,-334.838837
5006,-0.746826,0.104492,2.005493,206.237778,-317.993164,-382.873505
5023,-0.754639,-0.108887,1.796143,286.437988,-252.075180,-428.832977
5039,-0.687134,-0.838257,1.109619,286.499023,-244.628891,-429.626434
5056,-0.749146,-1.162598,1.310059,261.047363,-182.495102,-353.820770
5072,-0.771606,-1.298950,1.044312,268.981934,-47.485348,-210.388168
5089,-0.659424,-1.770996,0.672119,243.713364,-29.724119,-101.806633
5106,-0.645264,-1.695435,0.572998,196.716293,-55.480953,129.516602
5123,-0.594238,-1.517700,0.622681,181.945786,-87.646477,256.958008
5139,-0.425171,-1.013794,0.679443,161.682114,-96.191399,282.043457
5156,-0.352661,-0.725586,0.755249,194.885239,-111.816399,296.936035
5173,-0.371338,-0.366821,0.985107,306.396484,-109.863274,279.357910
5190,-0.353027,-0.473267,1.033813,355.834930,-92.773430,255.249008
5206,-0.313965,-0.563477,0.993774,413.940399,-22.460936,203.979477
5223,-0.241699,-0.691406,0.859375,442.321747,68.664551,175.109848
5239,-0.190796,-0.748657,0.591675,449.096649,105.773918,166.198715
5256,-0.141235,-0.743652,0.462158,431.030243,143.188477,145.874023
5272,0.000732,-0.779541,0.319580,401.855438,149.658203,131.958008
5289,0.057983,-0.874634,0.226562,295.593262,167.724594,98.083488
5305,0.044189,-0.915283,0.155029,121.826164,202.636703,60.302731
5322,0.042725,-0.907959,-0.004639,18.981934,217.651352,40.161129
5338,0.096313,-0.780151,-0.079224,-136.901855,219.116196,3.417969
5355,0.121338,-0.725708,-0.075439,-150.817871,187.561020,-20.019531
5371,0.138062,-0.777466,-0.053833,-117.553703,168.579086,-24.108885
5388,0.114014,-0.936279,-0.090942,-34.301758,128.906250,-16.662598
5405,0.093872,-1.000610,-0.104248,2.136230,82.214348,-9.460449
5421,0.024170,-1.061890,-0.088135,4.455566,59.875484,-11.291503
5438,-0.043945,-1.090088,-0.048706,3.967285,31.249998,-20.690916
5455,-0.053467,-1.110840,-0.037231,1.708984,25.695799,-23.193357
5471,-0.019165,-1.119385,-0.033569,-2.075195,25.756834,-19.897461
5488,0.004395,-1.109619,-0.039307,-8.361816,19.409180,-10.192870
5505,0.045898,-1.098877,-0.021729,-6.835937,4.821777,-1.953125
5521,0.073730,-1.049438,0.007080,-4.394531,-1.892090,-0.488281
5538,0.071533,-1.043213,0.005371,-5.126953,-13.732909,-0.854492
5555,0.061890,-1.031494,0.022705,-13.549804,-22.094725,0.488281
5571,0.060669,-1.007813,0.063110,-16.235352,-22.888182,2.807617
5588,0.060059,-0.999756,0.076660,-14.099120,-18.920898,7.873535
5604,0.055786,-0.980469,0.083862,-10.925292,-16.174316,8.605957
5621,0.047607,-0.963623,0.087646,-4.272461,-10.375976,5.187988
5638,0.044067,-0.963379,0.088989,0.732422,-4.028320,-0.488281
5654,0.032471,-0.982056,0.091553,2.075195,-0.793457,-2.563476
5671,0.016968,-1.013184,0.091553,-2.380371,5.981445,-5.187988
5688,0.009521,-1.016968,0.084106,-15.563964,13.427733,-6.713867
5704,0.019653,-0.998657,0.055542,-21.423338,15.869140,-7.507324
5721,0.052002,-0.973633,0.042603,-23.193357,13.977050,-6.469726
5738,0.058350,-0.970947,0.049805,-7.080078,5.249023,-1.220703
5754,0.049316,-0.981567,0.057495,2.197266,0.793457,0.549316
5771,0.031128,-0.983521,0.042114,14.221190,-5.737304,-0.488281
5788,0.020752,-0.994995,0.034424,18.127441,-8.361816,-3.662109
5804,0.009277,-1.043335,0.017212,15.380858,-8.605957,-3.417969
5821,0.005249,-1.050415,-0.008667,4.150391,-9.216309,1.403808
5838,0.002441,-1.039673,-0.029175,-4.455566,-12.390136,6.164550
5854,0.001831,-1.020630,-0.068359,-5.615234,-15.624999,7.507324
5871,-0.001709,-1.015381,-0.091431,-3.173828,-26.428221,8.911133
5888,-0.008545,-1.022339,-0.097412,-1.281738,-39.672852,11.108397
5905,-0.019775,-1.039185,-0.107178,-3.234863,-45.288082,13.244628
5922,-0.022583,-1.029785,-0.103394,-11.840819,-54.260250,18.676758
5938,-0.019897,-1.016968,-0.097412,-20.202635,-62.927242,23.315428
5955,-0.010376,-0.983154,-0.070557,-22.460936,-68.359375,24.108885
5972,0.003784,-0.968140,-0.025879,-21.362303,-80.383293,23.925779
5988,0.006592,-0.970337,0.002197,-15.930175,-91.247551,23.742674
6005,0.010010,-0.977783,0.058838,-13.854980,-95.092766,23.681639
6021,0.010376,-0.982422,0.085571,-14.465331,-97.961418,23.315428
6038,0.004517,-0.993896,0.128052,-25.207518,-95.214836,19.348145
6055,0.003662,-0.986450,0.152588,-35.095215,-93.261711,15.380858
6071,0.012939,-0.972290,0.160522,-54.565426,-90.881340,8.972168
6087,0.024048,-0.933228,0.168945,-57.067867,-89.355461,9.399414
6104,0.031616,-0.916748,0.176147,-45.532223,-84.289543,15.991210
6120,0.036255,-0.920654,0.183105,-28.198240,-81.787102,21.179197
6137,0.038452,-0.932373,0.200562,-22.399900,-82.458488,20.507811
6154,0.038452,-0.961548,0.239868,-15.136718,-85.388176,14.831542
6170,0.038574,-0.973633,0.259155,-16.784668,-85.937492,12.817382
6187,0.028931,-0.967041,0.276611,-20.751951,-84.472649,14.221190
6204,0.033325,-0.953613,0.291870,-25.390623,-79.528809,18.432617
6221,0.046387,-0.946777,0.303711,-23.071287,-77.331543,21.240232
6237,0.058716,-0.930298,0.321777,-20.019531,-77.880859,21.362303
6254,0.053589,-0.926880,0.339844,-10.437011,-78.918457,18.371582
6270,0.055176,-0.936035,0.350952,-0.976562,-76.965332,14.953612
6287,0.060181,-0.953125,0.368408,1.770019,-74.462891,14.038085
6303,0.060791,-0.950439,0.369263,2.014160,-66.650391,12.756347
6319,0.058716,-0.940430,0.359253,1.647949,-62.072750,11.718749
6336,0.075439,-0.952515,0.360229,5.126953,-54.870602,9.582520
6352,0.082031,-0.965332,0.362305,10.498046,-50.903316,9.155273
6368,0.090576,-0.970703,0.358765,11.413573,-49.438473,9.521484
6385,0.084229,-0.974121,0.351196,10.437011,-46.936031,10.620116
6401,0.080200,-0.971558,0.343384,7.202148,-42.053219,11.108397
6417,0.080078,-0.963501,0.326172,4.943848,-38.879395,11.657714
6434,0.082031,-0.962158,0.321899,0.976562,-34.973145,12.878417
6450,0.080200,-0.953735,0.324707,-0.183105,-34.362793,12.695312
6466,0.075317,-0.946411,0.324219,-1.037598,-33.386230,10.498046
6483,0.077026,-0.946777,0.324463,-0.610352,-31.738279,8.178711
6500,0.082397,-0.953735,0.331787,-0.976562,-30.334471,7.995605
6516,0.079712,-0.955811,0.342529,-3.906250,-25.756834,8.789063
6533,0.080688,-0.948730,0.343018,-7.690429,-18.615723,10.253905
6549,0.087524,-0.921143,0.335449,-8.850098,-15.258788,10.559081
6566,0.095459,-0.896851,0.326782,-5.432128,-12.084960,7.385253
6583,0.099731,-0.896484,0.326538,6.225585,-12.939452,2.075195
6599,0.096680,-0.925293,0.329956,12.084960,-13.244628,0.305176
6616,0.090332,-0.947021,0.333862,15.563964,-11.047362,-0.854492
6632,0.077393,-0.978638,0.334473,6.835937,-5.554199,0.915527
6649,0.069092,-0.971069,0.318970,1.647949,-2.868652,1.647949
6665,0.068481,-0.960449,0.309326,-1.464844,0.244141,1.159668
6682,0.069214,-0.942261,0.295898,0.793457,0.549316,0.305176
6698,0.069214,-0.946167,0.282227,9.155273,-0.122070,-2.807617
6715,0.068604,-0.960205,0.277832,15.441894,-1.220703,-5.310058
6732,0.062256,-0.994507,0.273804,15.686034,-0.915527,-4.821777
6749,0.062622,-1.003540,0.266968,9.765625,1.403808,-1.220703
6765,0.065796,-0.994995,0.262085,1.403808,2.624511,1.708984
6781,0.066772,-0.968384,0.251709,-1.220703,2.502441,2.319336
6798,0.070312,-0.954956,0.248169,-2.990722,1.647949,2.380371
6815,0.071777,-0.951538,0.247314,-3.112793,0.000000,1.525879
6831,0.072021,-0.959839,0.249512,-2.990722,-0.854492,0.976562
6848,0.066528,-0.975952,0.258423,-2.441406,-1.647949,0.915527
6864,0.066406,-0.977295,0.262817,-3.112793,-0.732422,2.258301
6881,0.070557,-0.974731,0.264648,-3.906250,-0.244141,2.441406
6898,0.078003,-0.972046,0.263550,-4.516602,0.122070,1.708984
6914,0.081177,-0.973267,0.264771,-2.746582,-0.976562,1.708984
6931,0.076538,-0.979248,0.274414,-1.403808,-1.892090,1.953125
6947,0.072754,-0.978516,0.276245,0.366211,-2.685547,1.586914
6964,0.075806,-0.972656,0.272827,2.075195,-2.014160,1.342773
6981,0.086060,-0.966064,0.264893,3.173828,-1.281738,1.647949
6997,0.086914,-0.964478,0.260620,3.417969,-0.488281,2.014160
7014,0.087891,-0.960327,0.259033,2.563476,-0.244141,1.831055
7030,0.083862,-0.958496,0.262329,-0.244141,0.671387,2.746582
7047,0.079834,-0.952515,0.263916,-3.967285,2.258301,4.089355
7064,0.078125,-0.939209,0.259155,-5.371093,3.295898,4.211426
7080,0.082642,-0.924194,0.247803,-6.286621,4.333496,3.295898
7096,0.081787,-0.920898,0.245361,-3.845215,3.784179,1.892090
7113,0.082031,-0.924561,0.242798,-2.136230,3.479004,1.464844
7129,0.082642,-0.927246,0.240112,0.732422,2.624511,0.244141
7146,0.088135,-0.932861,0.232910,2.929687,0.976562,-1.770019
7162,0.090454,-0.949829,0.237183,3.356933,-0.427246,-2.380371
7179,0.088501,-0.955811,0.242187,2.990722,-3.173828,-2.807617
7195,0.083496,-0.956299,0.247803,2.990722,-3.601074,-2.807617
7212,0.088501,-0.955444,0.247314,5.798339,-3.601074,-2.746582
7229,0.091553,-0.953003,0.247192,10.925292,-5.310058,-3.479004
7245,0.090698,-0.946655,0.247070,13.305663,-6.774902,-4.028320
7262,0.088745,-0.904907,0.235840,19.226074,-9.216309,-6.958007
7278,0.090698,-0.853760,0.223022,40.283199,-13.427733,-17.578125
7295,0.079102,-0.679321,0.207886,63.598629,-17.211914,-29.724119
7312,-0.004272,-0.489014,0.083252,148.986816,-28.869627,-78.857422
7328,-0.037109,-0.490723,0.010254,325.927704,-54.504391,-153.503418
7345,-0.097168,-0.671265,-0.128296,441.223114,-70.861816,-192.626938
7362,-0.302246,-1.029175,-0.405151,680.969177,-97.473137,-268.554687
7379,-0.409180,-1.316650,-0.641479,831.054626,-84.472649,-296.020508
7396,-0.452393,-1.948975,-1.119751,826.049744,-66.589355,-261.474609
7413,-0.548462,-2.186035,-1.267700,586.120605,-23.437498,-71.411133
7430,-0.643066,-1.946045,-1.382813,78.796387,23.193357,195.617661
7447,-0.816528,-0.894287,-1.731079,-160.827621,37.231445,306.762695
7463,-0.812866,-0.471558,-1.856812,-440.917938,33.325195,429.443329
7480,-0.714478,-0.655029,-1.892090,-634.582520,-40.344234,464.660614
7497,-0.603394,-0.915649,-1.849121,-775.085388,-104.064934,493.774384
7514,-0.678711,-0.155273,-1.490356,-1044.189453,-221.435532,570.861816
7531,-0.645874,0.324829,-1.197510,-1194.519043,-247.924789,595.581055
7548,-0.438232,0.998169,-0.892334,-1257.934570,-206.787094,590.393066
7565,-0.312256,1.798218,-0.724731,-1189.208984,-196.044907,549.316406
7582,0.152100,2.555298,-0.362793,-809.143005,-231.689438,362.915009
7599,0.345825,2.818115,-0.189087,-268.249512,-324.218719,42.480465
7616,0.047729,2.554565,0.280518,-19.226074,-353.332489,-132.751465
7632,-0.177856,2.085693,0.400146,349.975555,-374.755829,-362.976044
7649,-0.519531,0.575684,0.920898,562.133789,-477.783173,-441.345184
7666,-0.910645,-0.769043,1.432007,595.153809,-518.493652,-453.857391
7683,-1.077515,-1.251343,1.259521,468.994110,-496.032684,-450.683563
7699,-1.206909,-2.463257,1.093384,183.898911,-368.530243,-303.100586
7716,-0.998901,-2.696899,0.876587,32.348633,-281.799316,-163.085922
7733,-1.101440,-2.425293,0.575928,-57.128902,-142.333984,131.469727
7750,-1.227783,-1.619507,0.593750,115.173332,-106.445305,330.139130
7767,-0.698975,-0.660034,0.951050,212.707504,-81.237785,348.205536
7784,-0.462646,-0.870605,0.716309,359.619110,-28.381346,343.566864
7800,-0.457031,-0.973755,0.727173,377.502411,-37.719727,369.934052
7817,-0.416138,-0.744263,1.073730,371.276825,-38.635254,356.140106
7834,-0.259399,-0.750977,1.013794,369.445770,13.488769,283.630371
7851,-0.207520,-0.797363,0.854370,329.711884,77.148437,239.868149
7867,-0.177856,-0.763794,0.627930,304.382324,102.111809,228.149399
7884,-0.163086,-0.680176,0.529663,226.745590,145.446777,204.650864
7901,-0.090698,-0.498657,0.388672,120.178215,177.246078,172.241196
7918,0.010498,-0.332642,0.256592,78.491211,191.589340,149.169922
7934,0.063110,-0.287964,0.182373,42.846676,214.660629,87.280266
7950,0.145752,-0.457153,0.046143,40.832516,220.214828,53.283688
7967,0.175415,-0.762695,-0.001953,54.992672,213.378891,-0.061035
7983,0.170898,-0.848022,-0.040283,37.902832,190.429672,-20.996092
8000,0.153564,-0.928223,-0.116455,-2.441406,173.095688,-24.780272
8017,0.164429,-1.019897,-0.193726,-69.030762,132.690430,-25.634764
8033,0.160400,-1.048096,-0.218872,-81.054680,84.716789,-18.005371
8050,0.114136,-1.056763,-0.222412,-73.425293,62.927242,-17.700195
8067,0.108276,-1.098267,-0.193604,-44.677731,31.311033,-25.085447
8084,0.118286,-1.122314,-0.165649,-5.371093,11.169433,-28.564451
8100,0.139893,-1.144653,-0.129150,8.605957,3.295898,-26.184080
8117,0.148071,-1.151245,-0.072876,16.296387,-11.474608,-15.502929
8134,0.149414,-1.151489,-0.036865,9.399414,-21.179197,-2.197266
8151,0.154785,-1.116821,0.011108,2.685547,-23.010252,3.906250
8167,0.172607,-1.043457,0.041626,-11.352538,-22.521971,11.413573
8184,0.176025,-1.011353,0.054687,-18.005371,-19.287109,13.305663
8200,0.170044,-0.962402,0.062012,-15.319823,-16.845703,11.352538
8217,0.169922,-0.955444,0.063477,-4.760742,-12.268065,4.150391
8233,0.164795,-0.973633,0.062012,4.150391,-8.911133,-0.427246
8250,0.154419,-0.999390,0.048828,3.906250,-7.385253,-0.305176
8267,0.148926,-1.001831,0.043945,-2.380371,-4.333496,1.403808
8283,0.149658,-0.991089,0.028198,-7.080078,-2.685547,3.112793
8300,0.146484,-0.968506,0.011230,-7.812500,-3.479004,4.028320
8316,0.145874,-0.955811,0.005981,-3.601074,-6.835937,2.502441
8333,0.146240,-0.943848,-0.004150,0.122070,-8.850098,0.732422
8349,0.142822,-0.956177,-0.017700,8.056641,-11.779784,-2.319336
8366,0.142334,-0.965210,-0.025635,13.061522,-14.099120,-4.516602
8383,0.139160,-0.980347,-0.039917,14.526366,-15.686034,-5.004883
8400,0.137085,-1.003540,-0.059326,15.686034,-19.348145,-4.272461
8417,0.132935,-1.007568,-0.071533,11.840819,-23.864744,-2.136230
8433,0.130127,-1.001221,-0.087524,9.399414,-26.184080,-1.403808
8450,0.128540,-0.991699,-0.098389,3.967285,-31.555174,-0.549316
8466,0.125977,-0.982056,-0.103271,-0.305176,-37.597656,-0.976562
8483,0.118042,-0.971680,-0.104736,-0.854492,-40.771481,-1.708984
8500,0.105591,-0.988159,-0.107056,0.305176,-46.752926,-3.967285
8517,0.101685,-1.001831,-0.104492,-2.014160,-53.710934,-3.173828
8533,0.098389,-1.005981,-0.095703,-4.882812,-57.678219,-1.159668
8550,0.096558,-0.972778,-0.074341,-9.521484,-65.673828,1.831055
8566,0.103760,-0.962158,-0.053711,-4.211426,-73.608398,-0.061035
8583,0.108643,-0.968018,-0.014526,0.000000,-76.599121,-1.953125
8600,0.104004,-0.969482,0.016113,1.525879,-79.345703,-3.601074
8616,0.102173,-0.963379,0.027588,-2.929687,-78.308105,-2.746582
8632,0.107422,-0.951904,0.052246,-3.295898,-77.209473,-2.624511
8649,0.110352,-0.953613,0.068237,0.061035,-76.843262,-3.295898
8665,0.108887,-0.956665,0.092163,2.197266,-77.331543,-4.638672
8681,0.106934,-0.960571,0.100464,4.821777,-77.636719,-8.300781
8698,0.104370,-0.962402,0.105591,7.995605,-74.951172,-10.864257
8714,0.097534,-0.948853,0.109619,10.314940,-72.082520,-12.390136
8731,0.087402,-0.958984,0.105347,16.052246,-64.453125,-16.845703
8747,0.086182,-0.968384,0.101563,16.967773,-55.419918,-19.714355
8764,0.085937,-0.986328,0.089600,14.465331,-51.818844,-20.080564
8781,0.081909,-0.999512,0.074707,8.117676,-48.950191,-19.836426
8797,0.080933,-1.017334,0.078613,5.187988,-51.330563,-17.150879
8814,0.075684,-1.041870,0.093018,2.990722,-53.283688,-14.526366
8831,0.067017,-1.029907,0.093506,-4.028320,-55.419918,-10.314940
8848,0.063110,-1.019531,0.092407,-11.840819,-54.809566,-9.155273
8864,0.055176,-0.990845,0.088013,-14.526366,-53.649899,-9.094238
8881,0.051392,-0.955688,0.078735,-14.953612,-50.170895,-8.544922
8897,0.051880,-0.940430,0.073730,-7.141113,-49.865719,-8.911133
8914,0.047241,-0.955566,0.079224,-0.061035,-51.635738,-9.826660
8931,0.046143,-0.976074,0.087769,11.840819,-54.748531,-12.451171
8948,0.044678,-1.011841,0.111206,10.192870,-53.955074,-11.657714
8964,0.043457,-1.017822,0.138794,5.310058,-52.246090,-9.948730
8981,0.041992,-1.009766,0.152100,-5.249023,-47.790524,-7.446289
8998,0.046265,-0.998535,0.174561,-11.840819,-43.579098,-7.141113
9014,0.051270,-0.979980,0.181274,-12.939452,-41.809078,-7.141113
9031,0.045654,-0.978760,0.185547,-5.310058,-37.414551,-8.850098
9048,0.038452,-1.025024,0.200684,4.760742,-31.616209,-9.582520
9065,0.031860,-1.075439,0.217773,5.126953,-28.442381,-8.056641
9081,0.027954,-1.080933,0.218384,-3.967285,-19.714355,-3.173828
9098,0.020264,-1.052734,0.202148,-9.948730,-14.770507,-1.037598
9114,0.020996,-1.015991,0.182129,-14.465331,-5.432128,0.793457
9131,0.022583,-1.003296,0.173584,-5.920410,0.549316,1.281738
9147,0.021362,-0.993774,0.161865,0.915527,2.868652,0.976562
9164,0.020630,-1.003418,0.139404,11.840819,8.117676,-0.915527
9180,0.022095,-1.011230,0.126099,14.709472,11.169433,-0.732422
9197,0.021362,-1.024536,0.110596,14.221190,11.474608,0.183105
9214,0.021362,-1.019775,0.095703,11.657714,11.413573,1.342773
9230,0.020996,-1.021240,0.089111,7.080078,11.291503,2.258301
9246,0.023682,-1.011230,0.077148,3.784179,10.742187,2.990722
9263,0.024536,-0.999023,0.073486,-1.098633,8.422852,4.089355
9280,0.025146,-0.972656,0.069702,1.770019,7.507324,2.807617
9296,0.027466,-0.952515,0.063110,4.882812,8.056641,1.525879
9313,0.028198,-0.946167,0.060181,11.474608,9.704590,-0.854492
9329,0.028442,-0.967896,0.054199,13.793944,10.314940,-1.403808
9346,0.034058,-0.979248,0.051147,11.596679,9.033203,-1.281738
9362,0.036621,-0.974609,0.047241,5.554199,5.920410,-0.488281
9379,0.036865,-0.944946,0.038086,3.723144,4.516602,-0.732422
9395,0.040039,-0.903076,0.031982,4.516602,1.831055,-3.967285
9412,0.044800,-0.871338,0.028320,18.920898,-3.173828,-11.535644
9429,0.055420,-0.755249,0.017578,35.156250,-8.117676,-17.883301
9445,0.050903,-0.538696,0.031982,91.979973,-25.085447,-42.480465
9462,0.021973,-0.475342,0.044067,198.791489,-38.574219,-88.623039
9478,-0.111328,-0.505249,-0.022217,269.531250,-36.987305,-119.995110
9495,-0.245483,-0.860962,-0.138184,405.334442,-10.375976,-187.011703
9512,-0.286255,-1.052002,-0.241577,514.038086,40.954586,-223.571762
9529,-0.366089,-1.379028,-0.677979,557.678223,66.223145,-221.740707
9546,-0.406860,-1.755981,-1.011841,575.317383,94.665520,-158.996582
9563,-0.501465,-1.888184,-1.014526,409.362762,118.835442,-15.563964
9579,-0.694336,-1.860474,-1.311646,228.942856,130.065918,77.148437
9596,-0.919800,-1.564087,-1.755005,-216.735825,128.479004,279.541016
9613,-1.051880,-1.508911,-1.961792,-584.594727,111.755363,477.294891
9630,-1.179810,-1.454590,-2.094727,-698.730408,87.524406,566.711426
9647,-1.192139,-1.170654,-1.861938,-825.134216,-6.958007,719.055115
9664,-1.178345,-0.766357,-1.744507,-913.696228,-127.868645,783.386169
9681,-0.867920,0.226562,-1.436157,-959.960876,-179.748520,763.793884
9697,-0.510864,1.078491,-1.235718,-957.824646,-242.187485,667.480408
9714,-0.351196,1.490723,-1.102905,-814.269958,-296.325684,506.530731
9731,-0.134155,2.234741,-0.501831,-733.825623,-325.988739,402.587860
9748,-0.052734,2.344727,0.001221,-407.775848,-362.304657,169.738754
9765,-0.134399,2.278320,0.186279,98.510735,-343.017548,-84.350578
9782,-0.331909,1.885010,0.426147,271.667480,-307.250977,-200.500473
9798,-0.445435,0.745361,0.569092,412.536591,-274.230957,-365.905731
9815,-0.551880,0.009277,0.734741,350.769012,-364.990204,-461.059540
9832,-0.904663,-1.053223,1.435181,336.669891,-448.669403,-486.511200
9849,-1.162842,-1.425171,1.413086,304.931641,-561.828613,-474.426239
9865,-1.132935,-1.892090,1.242065,76.660156,-491.027802,-346.435516
9882,-1.190430,-2.576538,0.858032,-66.589355,-422.058075,-201.782211
9898,-1.767456,-1.825439,0.771729,-79.223633,-306.274414,143.371582
9915,-1.658936,-1.375000,1.129272,105.285637,-207.336411,330.505341
9932,-0.911987,-0.804321,1.245728,181.457504,-123.168938,332.641571
9949,-0.702881,-0.774780,0.962524,310.974121,35.522461,329.894989
9965,-0.669556,-0.701538,0.794678,353.088348,114.379875,348.083466
9982,-0.527344,-0.760864,0.653687,346.191376,129.394531,339.660614
9998,-0.462280,-0.829224,0.673706,335.510223,148.864746,308.715820
10014,-0.383057,-0.904297,0.662842,324.279755,162.902817,284.729004
10031,-0.305786,-0.953369,0.539429,296.020508,162.231430,276.367187
10048,-0.264282,-0.908936,0.493652,211.059555,155.334473,264.953613
10065,-0.161133,-0.598877,0.384766,125.793449,159.484863,230.529770
10081,-0.026611,-0.422363,0.274780,90.637199,165.893539,198.730453
10098,0.043579,-0.435181,0.204224,13.244628,173.034653,125.671379
10114,0.131226,-0.510620,0.088745,-27.404783,170.227036,90.637199
10130,0.160889,-0.604370,0.011108,-96.435539,158.081055,38.085937
10147,0.172974,-0.599731,-0.012939,-148.376465,146.423340,17.822266
10164,0.180786,-0.570068,-0.077148,-160.461426,137.939453,15.136718
10180,0.196899,-0.652588,-0.068481,-118.713371,108.337395,7.995605
10196,0.208618,-0.710205,-0.046997,-25.817869,75.927734,-13.854980
10213,0.216187,-0.917725,-0.032593,0.915527,62.255856,-26.550291
10230,0.193115,-1.108887,0.031372,4.028320,35.766602,-43.029781
10247,0.180908,-1.175293,0.083252,-9.582520,16.601562,-40.771481
10263,0.180908,-1.199951,0.162598,-11.474608,12.451171,-31.738279
10280,0.188477,-1.152466,0.186401,-3.601074,6.469726,-11.718749
10296,0.200928,-1.086670,0.211304,3.906250,1.586914,-6.103515
10312,0.197021,-1.088989,0.237427,7.080078,-10.375976,-3.906250
10329,0.189819,-1.100220,0.259033,-8.666992,-15.869140,-3.906250
10345,0.183350,-1.062012,0.281616,-19.653320,-13.977050,-2.502441
10362,0.171387,-0.980591,0.284180,-31.188963,-6.164550,3.173828
10378,0.171631,-0.955444,0.274902,-18.981934,2.014160,6.469726
10395,0.181885,-0.929565,0.254761,-7.629394,4.028320,5.310058
10411,0.181274,-0.962036,0.239624,9.094238,4.394531,2.380371
10428,0.181152,-0.976074,0.234253,2.380371,3.356933,2.136230
10444,0.182129,-0.984009,0.233521,-6.103515,3.662109,2.502441
10461,0.183105,-0.971313,0.230347,-20.507811,7.629394,2.807617
10477,0.182495,-0.932861,0.220581,-22.705076,10.314940,3.479004
10494,0.190063,-0.903320,0.211792,-16.418457,13.488769,4.150391
10511,0.195923,-0.902832,0.208984,-4.211426,10.437011,0.610352
10528,0.205811,-0.931030,0.217285,0.854492,7.141113,-1.586914
10544,0.203735,-0.966064,0.229614,3.295898,0.549316,-3.356933
10561,0.200195,-0.973999,0.232910,-2.502441,-2.624511,-1.953125
10577,0.193481,-0.960693,0.232178,-5.554199,-2.563476,-1.159668
10594,0.194336,-0.925293,0.229248,-6.958007,-1.464844,-0.488281
10611,0.197144,-0.921021,0.230957,-0.244141,-2.197266,-0.793457
10627,0.196167,-0.944824,0.244751,3.112793,-3.479004,-1.525879
10644,0.182983,-0.978516,0.275269,2.685547,-6.042480,-2.319336
10661,0.176514,-0.983276,0.298218,-4.577637,-4.516602,0.000000
10678,0.170654,-0.975342,0.340576,-7.812500,-1.159668,1.770019
10694,0.170044,-0.941406,0.391235,-10.620116,5.920410,3.601074
10711,0.167480,-0.940552,0.429932,-0.854492,14.160155,2.807617
10728,0.156494,-0.954468,0.509766,7.568359,21.484373,2.441406
10744,0.148804,-0.960083,0.554932,16.113281,43.457027,0.915527
10761,0.147583,-0.961914,0.564331,10.742187,72.021484,0.000000
10777,0.147461,-0.947144,0.549927,7.019042,86.791985,0.244141
10794,0.150024,-0.947388,0.523315,2.624511,110.656731,0.427246
10810,0.148071,-0.961548,0.508057,2.624511,124.877922,3.234863
10826,0.134888,-1.000244,0.483887,2.929687,129.943848,5.310058
10843,0.129272,-1.020264,0.469727,-3.112793,137.939453,9.460449
10859,0.120117,-1.034790,0.436157,-10.437011,141.723633,11.291503
10876,0.112793,-1.011719,0.413086,-24.780272,150.878906,14.892577
10892,0.112305,-0.983521,0.400879,-27.404783,160.461426,18.249512
10908,0.112793,-0.933472,0.348633,-23.132322,166.625961,19.042969
10924,0.119995,-0.926514,0.278687,-9.094238,182.128891,18.737793
10941,0.123901,-0.930420,0.241211,0.854492,195.983871,17.944336
10958,0.133789,-0.990601,0.183594,1.037598,199.829086,18.371582
10974,0.141602,-1.037964,0.172119,-10.559081,199.035629,21.911619
10990,0.162476,-1.076904,0.142212,-22.399900,195.983871,25.451658
11006,0.176880,-1.022949,0.082764,-46.997066,191.589340,32.714844
11023,0.186401,-0.990234,0.057129,-56.274410,190.551743,33.874512
11040,0.199707,-0.956421,0.037476,-52.795406,190.124496,32.531738
11056,0.206421,-0.952515,0.018311,-35.949707,190.917953,29.296873
11072,0.214111,-0.954834,0.006714,-20.935057,190.185532,27.893064
11089,0.235596,-0.978271,-0.008301,-17.761230,187.499985,28.442381
11105,0.245972,-0.986694,-0.016602,-20.751951,178.832993,31.982420
11122,0.246582,-0.993652,-0.037354,-27.770994,172.607407,36.254883
11139,0.245605,-0.972534,-0.065796,-30.578611,172.546371,36.865234
11156,0.250488,-0.955322,-0.083252,-34.790039,175.537094,36.560059
11173,0.274536,-0.927612,-0.114258,-39.672852,171.081528,37.475586
11189,0.293823,-0.901978,-0.117065,-40.954586,165.710434,38.146973
11206,0.299927,-0.891602,-0.113159,-37.780762,155.334473,38.085937
11223,0.301636,-0.879639,-0.113037,-31.127928,152.282715,35.766602
11239,0.309814,-0.846191,-0.128052,-28.930662,153.320312,34.118652
11256,0.315552,-0.833008,-0.134033,-24.169920,155.578613,30.517576
11273,0.325439,-0.827393,-0.168945,-18.127441,155.273437,26.428221
11289,0.341675,-0.837158,-0.211670,-16.174316,153.137207,24.780272
11306,0.343384,-0.857178,-0.222046,-16.113281,146.789551,23.376463
11323,0.339722,-0.889282,-0.241089,-19.775391,144.287109,23.315428
11339,0.344727,-0.873535,-0.267944,-34.118652,142.578125,23.742674
11356,0.353149,-0.855469,-0.286133,-45.837399,143.188477,23.315428
11373,0.377930,-0.827637,-0.331055,-47.119137,141.418457,21.667479
11389,0.413452,-0.810303,-0.345459,-37.536621,129.516602,17.028809
11406,0.420044,-0.818726,-0.342163,-16.052246,109.924309,14.221190
11423,0.401367,-0.860352,-0.317261,0.122070,101.379387,13.610839
11439,0.388184,-0.871704,-0.293579,23.864744,93.383781,13.305663
11456,0.377075,-0.878296,-0.289063,23.132322,97.595207,15.319823
11472,0.364990,-0.872681,-0.302368,16.906738,102.478020,16.052246
11489,0.374634,-0.831177,-0.331299,2.136230,109.191887,18.005371
11506,0.378784,-0.815918,-0.351440,-2.258301,107.971184,20.080564
11523,0.372070,-0.810669,-0.381226,0.000000,104.919426,19.226074
11540,0.353271,-0.817017,-0.381714,8.544922,99.121086,15.075683
11557,0.341553,-0.818726,-0.382813,13.610839,98.937981,12.756347
11573,0.329346,-0.817261,-0.401123,12.023925,100.952141,12.451171
11590,0.325806,-0.797974,-0.418457,5.249023,104.736320,11.779784
11607,0.321289,-0.783569,-0.437622,5.554199,105.529778,11.047362
11623,0.317383,-0.763428,-0.475830,4.882812,104.736320,10.314940
11640,0.313965,-0.760010,-0.458984,2.441406,99.670403,8.666992
11656,0.317017,-0.753784,-0.432251,0.244141,89.965813,6.225585
11673,0.304810,-0.715332,-0.379272,-4.272461,85.205070,4.089355
11689,0.286743,-0.687012,-0.366089,-15.624999,84.472649,-4.272461
11706,0.249878,-0.631592,-0.397339,-19.104004,93.749992,-18.554687
11723,0.238037,-0.640381,-0.464844,-15.075683,97.900383,-25.817869
11740,0.231689,-0.681763,-0.488770,-0.244141,100.219719,-35.888672
11756,0.197510,-0.804810,-0.537476,6.958007,99.670403,-38.513184
11773,0.162842,-0.902954,-0.589478,1.403808,99.792473,-36.621094
11789,0.155396,-0.916016,-0.620728,-17.272949,98.693840,-26.245115
11806,0.147339,-0.910522,-0.690552,-27.648924,96.374504,-20.263670
11822,0.149170,-0.883545,-0.767944,-38.696289,85.815422,-12.573241
11839,0.156006,-0.876465,-0.789062,-34.484863,63.720699,-9.155273
11856,0.148804,-0.896118,-0.777954,-26.062010,49.133297,-8.422852
11872,0.137329,-0.872681,-0.747681,-8.117676,20.690916,-10.314940
11889,0.127441,-0.869019,-0.722046,4.760742,1.770019,-15.686034
11905,0.111206,-0.907471,-0.663574,7.202148,-3.051758,-16.967773
11922,0.116943,-0.943115,-0.628906,2.807617,-7.080078,-13.610839
11939,0.126709,-0.949829,-0.611206,-6.835937,-10.803222,-5.859375
11956,0.136963,-0.929565,-0.574707,-10.864257,-13.488769,-2.380371
11972,0.133667,-0.890747,-0.543945,-12.451171,-16.845703,0.732422
11989,0.134033,-0.875854,-0.527954,-5.737304,-16.296387,-1.159668
12006,0.133301,-0.864380,-0.503540,-0.549316,-15.686034,-2.990722
12023,0.142944,-0.864624,-0.485229,11.108397,-14.831542,-7.324218
12040,0.147095,-0.862305,-0.477905,20.385740,-14.465331,-9.765625
12056,0.145020,-0.850342,-0.481567,23.193357,-13.671874,-10.437011
12073,0.153442,-0.848267,-0.492310,24.719236,-10.131835,-12.390136
12089,0.160889,-0.843384,-0.495483,22.277830,-7.446289,-13.549804
12106,0.176636,-0.826538,-0.499878,20.263670,-7.568359,-14.038085
12123,0.173584,-0.782471,-0.524292,22.033689,-9.399414,-17.822266
12140,0.176147,-0.735229,-0.552002,39.245605,-14.099120,-31.860350
12156,0.189453,-0.557739,-0.597412,59.265133,-18.981934,-45.654293
12173,0.198975,-0.437500,-0.595093,127.807610,-35.034180,-90.270988
12190,0.165405,-0.441528,-0.573608,213.012680,-51.818844,-148.559570
12206,-0.000244,-0.587769,-0.459717,243.225082,-45.227047,-177.612289
12223,-0.164795,-0.789185,-0.434204,242.797836,15.930175,-224.975571
12240,-0.199341,-0.855957,-0.494751,181.335434,91.186516,-250.305161
12257,-0.117432,-1.042358,-0.732422,140.319824,111.267082,-248.291000
12274,-0.212769,-1.369019,-0.813232,69.763184,112.060539,-191.162094
12290,-0.354370,-1.666016,-0.736938,7.629394,138.793945,-39.428711
12307,-0.684082,-1.938599,-1.046265,-88.256828,171.020493,71.289062
12323,-0.923950,-1.845703,-1.324219,-347.290009,219.665512,306.823730
12340,-1.258057,-1.722046,-1.563232,-482.238739,233.032211,495.605438
12357,-1.125488,-1.558105,-1.687256,-508.300751,213.623032,569.824219
12374,-0.754272,-1.137817,-1.665161,-532.775879,103.515617,662.841736
12391,-0.587402,-0.876709,-1.518555,-503.906219,-52.429195,670.593201
12408,-0.289795,-0.315796,-1.162231,-486.755341,-123.962395,645.568787
12425,-0.121826,0.103394,-0.822876,-436.462372,-245.544418,571.228027
12441,-0.120483,0.278198,-0.677368,-427.429169,-321.655243,494.506805
12458,0.037598,1.085083,-0.339722,-371.948212,-341.369598,436.279266
12475,0.250977,1.496948,0.088013,-197.265610,-348.571747,223.266586
12492,0.330444,1.509521,0.238892,-48.339840,-309.814453,-29.846189
12509,0.306763,1.349121,0.643433,4.760742,-293.701172,-134.338379
12525,0.087891,0.643066,1.212036,99.121086,-321.960419,-275.085449
12542,-0.100708,0.250488,1.561523,183.410629,-348.266571,-359.741180
12559,-0.354492,-0.504150,1.233765,174.743637,-323.242157,-403.076141
12576,-0.491455,-0.944214,0.841187,126.647942,-320.800781,-434.692352
12593,-0.668701,-1.013672,0.945190,151.062012,-264.648437,-398.315399
12609,-0.779907,-1.470825,0.698975,159.912109,-197.082504,-369.018524
12626,-0.585693,-2.109985,0.558228,99.609367,-109.680168,-227.355942
12643,-0.643799,-2.044922,0.565430,75.744629,-73.059082,13.854980
12660,-0.701050,-1.710571,0.427368,104.003899,-53.955074,113.952629
12677,-0.484863,-1.390259,0.312866,210.693344,-35.888672,255.065903
12694,-0.371948,-1.171753,0.345947,320.190430,-29.907225,320.617676
12711,-0.124268,-1.105225,0.079956,361.328094,-28.320311,332.580536
12727,-0.015625,-1.182251,0.123779,444.335907,-61.584469,354.675262
12745,-0.005859,-1.163696,0.268921,495.239227,-57.189938,365.356415
12761,0.031616,-1.173706,0.410400,516.784668,-27.099607,355.529755
12778,0.108032,-1.107422,0.257080,555.664063,41.503902,321.350067
12795,0.152954,-0.986084,0.167236,425.720184,74.279785,292.785645
12812,0.294678,-0.612671,0.033447,341.369598,85.327141,266.296387
12828,0.432739,-0.292847,-0.109375,209.533676,119.873039,179.870590
12845,0.441772,-0.282104,-0.153198,112.731926,171.874985,103.149406
12861,0.401978,-0.400635,-0.288452,73.913574,196.594223,78.308105
12878,0.410156,-0.407715,-0.480835,7.202148,213.623032,46.813961
12895,0.414185,-0.427612,-0.549316,-26.184080,188.293442,21.972654
12912,0.390869,-0.527100,-0.684204,-25.146482,169.738754,10.559081
12929,0.365967,-0.583008,-0.817383,-31.677244,132.324219,-3.051758
12946,0.356445,-0.621826,-0.866333,-57.556149,87.036125,0.061035
12963,0.292725,-0.656372,-0.867920,-66.650391,62.377926,1.586914
12979,0.240845,-0.666138,-0.832642,-53.955074,24.414061,-10.009766
12996,0.234863,-0.667847,-0.808594,-15.197753,2.014160,-34.606934
13013,0.239502,-0.739868,-0.762207,5.126953,-5.554199,-44.311520
13030,0.258179,-0.914917,-0.720581,18.127441,-22.033689,-43.090816
13047,0.256348,-0.963257,-0.669067,-4.455566,-40.527340,-17.333984
13064,0.250854,-0.934692,-0.588135,-17.761230,-44.738766,-4.516602
13081,0.273682,-0.774414,-0.556885,-31.738279,-39.001465,9.887695
13098,0.291626,-0.719727,-0.569214,-23.254393,-23.925779,7.141113
13115,0.327026,-0.694336,-0.587646,-14.587401,-19.531250,2.319336
13131,0.323608,-0.708496,-0.564087,3.051758,-18.188477,-6.774902
13148,0.316650,-0.722290,-0.557007,15.258788,-14.221190,-9.521484
13165,0.300171,-0.773926,-0.563965,16.906738,-10.314940,-8.239746
13181,0.295044,-0.797729,-0.590698,8.300781,-1.525879,-2.502441
13198,0.296387,-0.783325,-0.607178,-8.422852,2.624511,3.662109
13214,0.300171,-0.738281,-0.626953,-13.305663,1.525879,4.272461
13231,0.297607,-0.714355,-0.623779,-11.352538,-4.943848,0.793457
13247,0.289551,-0.714722,-0.618530,0.183105,-9.155273,-4.333496
13264,0.284790,-0.733276,-0.612183,5.554199,-8.728027,-6.164550
13280,0.292358,-0.740845,-0.623169,10.925292,-4.943848,-7.141113
13297,0.297119,-0.749878,-0.636108,9.582520,-4.028320,-7.080078
13314,0.305786,-0.787109,-0.657593,6.286621,-5.981445,-6.225585
13330,0.309570,-0.809204,-0.665405,-1.525879,-10.253905,-2.868652
13347,0.309937,-0.813477,-0.668091,-4.516602,-10.070800,3.356933
13364,0.324463,-0.822266,-0.695923,-3.356933,-9.826660,8.361816
13380,0.334717,-0.844971,-0.720093,2.319336,-18.981934,18.981934
13397,0.328125,-0.900757,-0.742554,4.638672,-39.855957,25.878904
13414,0.322510,-0.906494,-0.714600,3.906250,-48.950191,28.503416
13431,0.331299,-0.899292,-0.682251,1.770019,-58.044430,35.339355
13448,0.354980,-0.861694,-0.607788,-1.525879,-58.349606,43.395992
13464,0.379272,-0.800171,-0.549805,-2.807617,-57.495113,46.691891
13482,0.397339,-0.757690,-0.517700,1.159668,-55.358883,49.377438
13499,0.402466,-0.746582,-0.505371,10.620116,-52.062984,46.630856
13515,0.408691,-0.731567,-0.480225,14.160155,-49.194332,44.982906
13532,0.417114,-0.705688,-0.473999,16.967773,-41.320797,42.480465
13549,0.422485,-0.686890,-0.477539,16.418457,-33.264160,39.550781
13565,0.440186,-0.666138,-0.487305,16.418457,-30.395506,38.635254
13582,0.446899,-0.666870,-0.487915,17.700195,-26.611326,40.039062
13599,0.465210,-0.649292,-0.499634,15.563964,-24.047850,39.611816
13616,0.476562,-0.611694,-0.510132,15.075683,-22.705076,36.804199
13632,0.486206,-0.597778,-0.525146,17.517090,-18.615723,29.785154
13649,0.494873,-0.600342,-0.535522,22.277830,-14.465331,26.000975
13665,0.517334,-0.621216,-0.548340,23.620604,-13.793944,27.221678
13682,0.526978,-0.631836,-0.554932,20.507811,-15.563964,32.775879
13699,0.542603,-0.609863,-0.567017,15.258788,-20.019531,32.958984
13715,0.549194,-0.566528,-0.570312,15.563964,-21.789549,30.639647
13732,0.553955,-0.564087,-0.562988,18.249512,-23.559568,26.184080
13749,0.563965,-0.572510,-0.546997,18.127441,-23.803709,24.658201
13766,0.582153,-0.550171,-0.532227,14.892577,-23.559568,22.888182
13782,0.593994,-0.528442,-0.520264,12.573241,-24.902342,21.606443
13799,0.609253,-0.496216,-0.495483,12.390136,-25.695799,20.080564
13815,0.623535,-0.490112,-0.487671,11.169433,-25.939939,16.174316
13832,0.630859,-0.486816,-0.484375,7.751464,-25.024412,12.145995
13849,0.644165,-0.470581,-0.478760,7.141113,-24.169920,9.887695
13865,0.652710,-0.469849,-0.471924,9.582520,-22.766111,4.821777
13882,0.655029,-0.476196,-0.463745,11.230468,-22.094725,0.305176
13899,0.655640,-0.487915,-0.443237,10.375976,-21.179197,-1.647949
13915,0.656128,-0.490234,-0.438477,6.164550,-16.906738,-5.493164
13932,0.656372,-0.489502,-0.438721,4.638672,-11.108397,-9.460449
13949,0.656006,-0.507446,-0.436768,5.981445,-8.117676,-10.742187
13966,0.659912,-0.547852,-0.444580,8.117676,-3.051758,-11.169433
13983,0.661621,-0.563354,-0.451050,5.737304,-0.305176,-9.094238
14000,0.654297,-0.579102,-0.467651,3.967285,0.549316,-7.812500
14017,0.644043,-0.575928,-0.488525,2.746582,3.356933,-7.507324
14034,0.640625,-0.577148,-0.496948,5.676269,7.385253,-9.277344
14050,0.641724,-0.597778,-0.515381,7.263183,8.239746,-9.521484
14067,0.637085,-0.625122,-0.516602,5.676269,5.004883,-6.652832
14084,0.631104,-0.621338,-0.515137,0.671387,0.366211,-3.234863
14101,0.620239,-0.581055,-0.515015,0.061035,-0.549316,-2.990722
14117,0.620239,-0.556763,-0.517822,6.530761,1.159668,-5.004883
14134,0.624634,-0.563477,-0.523682,14.160155,4.699707,-6.042480
14151,0.630981,-0.593506,-0.532715,14.099120,5.371093,-4.882812
14167,0.626343,-0.609985,-0.521362,6.347656,4.516602,-0.366211
14184,0.622437,-0.602783,-0.515015,-3.540039,4.577637,4.028320
14200,0.617920,-0.559204,-0.513184,-7.202148,5.126953,5.126953
14217,0.615601,-0.520142,-0.525391,-7.080078,6.225585,3.112793
14234,0.616089,-0.516357,-0.536011,1.831055,6.103515,-4.272461
14251,0.617798,-0.539551,-0.547119,7.141113,5.432128,-8.178711
14267,0.617920,-0.585815,-0.559692,12.390136,4.455566,-11.718749
14284,0.619263,-0.599365,-0.565063,7.873535,3.173828,-11.169433
14301,0.622437,-0.606201,-0.570435,4.028320,2.380371,-10.009766
14317,0.621948,-0.600342,-0.570557,-1.831055,0.976562,-5.432128
14334,0.622681,-0.591431,-0.566772,-2.502441,-0.976562,-1.708984
14351,0.626099,-0.579346,-0.559448,-0.732422,-2.380371,-1.770019
14368,0.625366,-0.585083,-0.550049,2.990722,-4.760742,-3.112793
14385,0.624756,-0.585815,-0.546631,5.187988,-4.150391,-3.051758
14402,0.629028,-0.582886,-0.543091,6.103515,-3.173828,-3.173828
14419,0.633179,-0.579346,-0.545044,6.958007,-2.136230,-3.417969
14435,0.633545,-0.586548,-0.546509,5.371093,-3.234863,-1.770019
14452,0.633545,-0.590820,-0.544556,2.868652,-4.272461,-0.122070
14469,0.634033,-0.564819,-0.534302,-0.976562,-6.225585,0.671387
14486,0.637207,-0.556641,-0.520874,0.183105,-7.385253,-1.892090
14503,0.636841,-0.550415,-0.447388,-0.305176,-7.263183,-3.479004
14520,0.608765,-0.473145,-0.335083,11.901855,3.906250,-11.962890
14537,0.579224,-0.420898,-0.320313,44.921871,41.625973,-42.602535
14554,0.492432,-0.385376,-0.335938,58.410641,67.321777,-66.955566
14571,0.448120,-0.550537,-0.476440,91.247551,120.666496,-109.436028
14587,0.392944,-0.764526,-0.587646,107.666008,161.743149,-100.708000
14604,0.124634,-1.557007,-0.776245,79.406738,183.532700,-69.396973
14621,0.031738,-1.934326,-1.243286,-131.713867,233.215317,72.387695
14637,0.024292,-1.838013,-1.612427,-422.058075,202.270493,289.978027
14654,-0.107666,-1.405762,-2.080322,-505.371063,145.446777,391.967743
14671,-0.172241,-0.834961,-1.869263,-509.643524,7.812500,519.226074
14688,-0.072998,-0.567261,-1.698975,-473.876923,-116.882317,543.029785
14705,0.219482,-0.166138,-1.376221,-447.509735,-178.771957,529.052734
14721,0.182617,0.436890,-0.747803,-381.225555,-307.067871,479.370087
14738,0.159546,0.823120,-0.492187,-441.528290,-357.971161,374.877899
14755,0.385254,1.569580,-0.316895,-440.551727,-340.820282,273.132324
14771,0.649780,2.073853,-0.321411,-326.171844,-297.729492,9.216309
14788,0.702393,2.048218,-0.177734,-24.719236,-342.712372,-225.830063
14805,0.538086,1.152588,0.503784,152.282715,-390.869110,-307.434082
14822,0.254272,-0.286743,0.852051,350.707977,-474.914520,-423.034637
14838,0.139282,-0.985596,0.616943,260.681152,-556.762695,-465.148895
14855,-0.290527,-1.156738,0.333374,192.626938,-596.374512,-444.274872
14871,-0.293945,-2.229126,0.358643,185.913071,-599.792480,-313.964844
14888,-0.530029,-2.883057,0.570190,229.553207,-450.195282,80.322258
14905,-0.990356,-2.575439,0.617187,198.669418,-349.914520,289.733887
14922,-0.379395,-1.539063,0.392822,302.551270,-216.491684,508.422821
14939,-0.146606,-1.528687,0.434692,406.188934,-192.993149,554.077148
14956,-0.263184,-1.497070,0.598022,397.460907,-193.542465,578.674316
14973,-0.016113,-0.967896,0.852783,426.330536,-180.725082,555.114746
14990,0.242920,-0.851807,0.855835,454.528778,-95.336906,477.722137
15006,0.505493,-0.632935,0.825806,447.509735,-32.226562,453.674286
15023,0.640991,-0.098877,0.751343,455.505341,94.787590,401.367157
15039,0.656372,-0.050049,0.618408,438.415497,191.650375,330.932587
15056,0.644775,-0.054321,0.359497,392.272919,218.872055,303.344727
15072,0.623169,0.044434,0.140381,244.934067,265.869141,244.628891
15089,0.623779,-0.008423,-0.030640,20.690916,305.664062,179.443344
15105,0.657837,-0.132690,-0.405029,-119.689934,307.556152,150.329590
15122,0.656250,-0.072876,-0.510132,-338.439911,274.719238,106.079094
15138,0.616699,-0.000854,-0.720947,-351.379364,235.046371,81.237785
15155,0.551147,-0.196289,-0.957520,-326.171844,220.764145,73.364258
15172,0.546997,-0.242187,-1.094849,-292.846680,189.819321,44.494625
15189,0.610596,-0.253174,-1.139038,-200.439438,116.943352,17.456055
15206,0.652954,-0.378906,-0.961060,-139.099121,75.927734,8.605957
15222,0.645752,-0.492432,-0.874146,-33.569336,16.845703,-2.563476
15239,0.614014,-0.687622,-0.724487,-9.033203,2.746582,-1.708984
15256,0.628296,-0.652222,-0.660034,-23.376463,6.652832,1.708984
15272,0.653320,-0.602173,-0.656250,-59.509274,12.878417,8.239746
15289,0.709595,-0.494995,-0.642456,-73.974609,0.732422,10.864257
15306,0.721802,-0.427368,-0.612671,-67.382812,-8.239746,8.361816
15323,0.721680,-0.422119,-0.609375,-44.189449,-22.277830,-0.793457
15340,0.694336,-0.437988,-0.572510,-20.812986,-25.146482,-6.774902
15356,0.668091,-0.509888,-0.533325,-10.803222,-19.714355,-5.126953
15373,0.674927,-0.525269,-0.535034,-6.225585,-5.432128,3.051758
15390,0.704102,-0.516602,-0.552002,-9.521484,-1.342773,4.882812
15406,0.723267,-0.476196,-0.551880,-19.714355,-3.356933,4.943848
15423,0.718262,-0.454346,-0.552734,-21.057127,-8.911133,1.831055
15439,0.711304,-0.416382,-0.562744,-18.676758,-11.047362,-0.793457
15456,0.697266,-0.427368,-0.540405,-8.972168,-14.709472,-6.225585
15472,0.686890,-0.459717,-0.530029,0.427246,-10.070800,-9.765625
15489,0.682617,-0.497803,-0.520752,0.366211,-5.798339,-7.263183
15506,0.692749,-0.489258,-0.532959,-2.380371,1.708984,-1.220703
15523,0.703003,-0.483521,-0.546631,-2.868652,-0.122070,-1.037598
15539,0.699951,-0.492554,-0.548828,-1.892090,-4.760742,-1.159668
15556,0.676758,-0.501709,-0.535278,-0.854492,-10.681151,-2.807617
15572,0.666260,-0.502808,-0.529419,-4.455566,-8.789063,-4.699707
15589,0.657104,-0.490967,-0.525635,-6.103515,-6.225585,-5.126953
15606,0.661255,-0.470093,-0.537964,-5.554199,-1.159668,-3.662109
15623,0.661377,-0.465942,-0.549438,0.671387,1.281738,-1.281738
15639,0.661621,-0.479370,-0.564819,3.112793,1.159668,-1.770019
15656,0.661865,-0.505127,-0.568726,1.403808,-1.037598,-4.882812
15672,0.658569,-0.519531,-0.572632,-7.385253,-2.380371,-6.042480
15689,0.650879,-0.527588,-0.587891,-12.084960,-1.953125,-5.615234
15706,0.656250,-0.497314,-0.614380,-16.906738,-0.976562,-5.187988
15723,0.663208,-0.487427,-0.624146,-10.681151,-4.394531,-4.577637
15740,0.672119,-0.515015,-0.634521,-5.493164,-7.751464,-3.601074
15757,0.679077,-0.531860,-0.624512,-1.953125,-15.136718,-1.770019
15773,0.680298,-0.529175,-0.617065,-8.728027,-21.179197,-0.732422
15790,0.682007,-0.525757,-0.601685,-13.366698,-23.132322,0.122070
15807,0.687012,-0.520874,-0.594116,-20.996092,-26.428221,2.807617
15823,0.697388,-0.509521,-0.578247,-24.475096,-31.860350,7.690429
15840,0.704224,-0.492798,-0.562866,-24.780272,-35.095215,9.765625
15857,0.704712,-0.481201,-0.552612,-21.972654,-40.222164,8.728027
15873,0.709595,-0.471558,-0.520142,-17.150879,-42.785641,4.699707
15890,0.713135,-0.489014,-0.478149,-15.197753,-43.762203,2.990722
15907,0.714111,-0.500977,-0.460937,-14.343261,-44.311520,1.220703
15923,0.718750,-0.509155,-0.442139,-17.822266,-44.433590,1.342773
15940,0.727905,-0.509644,-0.431030,-18.920898,-44.738766,1.342773
15958,0.739502,-0.517090,-0.408081,-17.761230,-47.607418,1.831055
15974,0.742310,-0.526123,-0.388062,-13.732909,-50.354000,2.746582
15991,0.750122,-0.537231,-0.354004,-13.366698,-50.231930,2.807617
16008,0.757202,-0.534180,-0.343628,-15.747069,-47.851559,2.563476
16025,0.768433,-0.528687,-0.323853,-16.723633,-44.921871,2.258301
16041,0.773437,-0.526733,-0.308105,-15.930175,-43.579098,1.831055
16058,0.776733,-0.533203,-0.303101,-12.145995,-41.381832,1.770019
16074,0.783569,-0.556030,-0.288696,-10.620116,-39.001465,3.601074
16091,0.790039,-0.552612,-0.278442,-11.718749,-37.536621,4.577637
16108,0.791504,-0.538940,-0.274414,-13.183593,-34.667969,4.577637
16124,0.790161,-0.511597,-0.265625,-11.352538,-33.203125,3.356933
16141,0.789551,-0.506958,-0.263184,-2.624511,-29.724119,0.122070
16158,0.789917,-0.510864,-0.261963,5.798339,-26.489256,-1.892090
16174,0.793823,-0.513672,-0.248901,9.338379,-25.451658,-2.685547
16191,0.795532,-0.536255,-0.226929,14.404296,-25.268553,-4.272461
16208,0.791870,-0.556030,-0.217407,10.803222,-23.193357,-4.577637
16225,0.787354,-0.586914,-0.201660,4.394531,-20.446775,-3.356933
16242,0.790771,-0.561401,-0.197021,-12.023925,-12.695312,-0.244141
16258,0.798218,-0.538208,-0.199951,-20.629881,-5.676269,-0.854492
16275,0.820557,-0.507690,-0.217529,-20.935057,-5.126953,-2.502441
16292,0.826538,-0.507568,-0.205811,-13.916015,-10.559081,-5.126953
16309,0.820312,-0.513062,-0.193970,-2.136230,-14.831542,-7.141113
16326,0.807617,-0.540405,-0.176636,1.892090,-14.160155,-7.812500
16343,0.805664,-0.567139,-0.170044,3.356933,-9.277344,-6.774902
16360,0.808105,-0.565063,-0.171631,-0.244141,-4.638672,-4.821777
16377,0.815186,-0.548096,-0.189453,-1.831055,-4.699707,-3.906250
16394,0.816650,-0.555176,-0.197388,-0.610352,-7.080078,-3.723144
16411,0.808716,-0.569336,-0.190063,3.173828,-10.437011,-4.150391
16428,0.805176,-0.571045,-0.186279,4.638672,-7.751464,-5.004883
16445,0.801025,-0.567871,-0.190186,5.187988,-4.882812,-5.065917
16462,0.807861,-0.557251,-0.197632,6.164550,0.854492,-4.272461
16478,0.816040,-0.552368,-0.204224,7.690429,2.685547,-3.479004
16495,0.828613,-0.556274,-0.215698,8.300781,1.159668,-3.601074
16512,0.813721,-0.592773,-0.210815,7.690429,-2.624511,-3.906250
16529,0.805298,-0.604614,-0.207397,0.732422,-0.549316,-2.624511
16546,0.802856,-0.588989,-0.218140,-3.173828,1.770019,-1.037598
16563,0.817383,-0.555786,-0.237549,-4.150391,4.089355,1.037598
16580,0.821777,-0.544922,-0.242187,1.770019,1.770019,0.732422
16596,0.815186,-0.543579,-0.244629,5.065917,-0.061035,0.061035
16613,0.811279,-0.554443,-0.242554,7.873535,-3.112793,-0.366211
16630,0.815552,-0.555908,-0.240601,4.394531,-4.028320,-0.244141
16647,0.818237,-0.533691,-0.238159,1.647949,-4.028320,-0.732422
16664,0.806641,-0.471802,-0.231445,-0.244141,-4.821777,-5.065917
16681,0.802612,-0.414917,-0.234619,15.258788,-6.958007,-22.033689
16698,0.798706,-0.279663,-0.264771,37.902832,-9.033203,-38.757324
16714,0.771484,-0.162231,-0.281250,113.037102,-14.282226,-88.317863
16731,0.748169,-0.089600,-0.281006,217.834457,-16.723633,-153.503418
16748,0.651855,-0.017822,-0.250122,283.996582,-12.451171,-189.270004
16765,0.464478,-0.218750,-0.197632,434.936493,26.000975,-257.202148
16781,0.355713,-0.450562,-0.188354,504.089325,107.238762,-311.828613
16798,0.100830,-1.035400,-0.198853,484.924286,155.334473,-337.341278
16814,-0.044067,-1.375854,-0.381592,356.445282,250.976547,-397.155731
16831,0.073975,-1.584961,-0.637695,117.980949,281.738281,-374.389618
16848,0.386841,-2.394897,-1.250732,-10.803222,261.230469,-255.187973
16865,-0.660522,-2.669434,-1.563232,-180.786118,254.394516,226.806625
16882,-1.494507,-2.317505,-1.861694,-438.354462,355.590790,708.679138
16899,-1.917725,-1.173096,-2.625488,-566.650391,385.009735,841.247498
16915,-1.110840,-0.461060,-2.684448,-663.696228,289.489746,919.067322
16933,-0.722046,-0.301392,-2.562378,-617.065430,69.763184,861.816345
16950,-0.261963,0.040039,-1.865967,-580.505371,-50.354000,804.321228
16967,0.103027,0.444824,-0.936279,-551.696777,-206.298813,667.724548
16983,0.228516,0.820435,-0.729370,-484.191864,-239.807114,583.435059
17000,0.194580,1.647583,-0.662842,-407.775848,-258.789062,541.320801
17017,0.339966,2.161865,-0.281982,-291.381836,-300.659180,310.668945
17033,0.577393,2.334717,-0.127930,-193.054184,-255.310043,-81.359856
17050,0.770752,2.350464,0.134155,-30.090330,-246.520981,-261.413574
17067,0.637939,1.375122,0.456909,310.485840,-329.650848,-492.126434
17083,0.379272,0.567993,0.520508,334.777802,-445.983856,-611.145020
17100,-0.263672,-1.089478,0.347046,233.154282,-499.694794,-626.281738
17117,-0.178223,-2.349609,0.683472,42.480465,-544.250488,-476.806610
17134,-0.321777,-2.291504,0.822266,6.774902,-407.470673,-125.244133
17150,-0.976318,-1.587158,0.794189,72.509766,-318.115234,21.362303
17167,-0.550049,-1.856079,0.501221,348.449677,-183.105453,185.852036
17185,-0.160767,-1.929688,0.284180,404.540985,-132.751465,275.756836
17201,0.291626,-1.717285,0.132568,360.961884,-133.544922,305.969238
17218,0.285522,-1.233154,0.274780,282.409668,-131.896973,345.886200
17235,0.290161,-0.979370,0.313477,268.798828,-108.154289,338.378876
17251,0.447632,-0.720947,0.513062,305.053711,-93.505852,322.143524
17268,0.589844,-0.636963,0.548462,372.558563,-45.349117,293.029785
17285,0.642822,-0.613892,0.520386,351.745575,11.901855,254.211411
17302,0.657104,-0.580200,0.420410,332.092255,39.672852,231.811508
17318,0.693726,-0.434814,0.269165,250.244125,87.158195,185.607895
17335,0.719727,-0.359985,0.218018,145.141602,129.821777,140.258789
17352,0.718994,-0.302124,0.097534,102.172844,152.893066,120.849602
17369,0.716064,-0.332397,-0.084229,21.911619,183.471664,85.266106
17386,0.737915,-0.359863,-0.141479,-22.827147,168.212875,54.565426
17402,0.789062,-0.418701,-0.228760,-33.996582,148.986816,42.114254
17419,0.797607,-0.413208,-0.234619,-56.762691,108.886711,22.155760
17436,0.774048,-0.403076,-0.231934,-61.218258,87.036125,4.577637
17452,0.742920,-0.409790,-0.270142,-50.781246,85.083000,-3.479004
17469,0.770386,-0.482056,-0.359009,-26.916502,79.956055,-16.540527
17486,0.780518,-0.551025,-0.380859,-15.441894,53.161617,-23.986814
17503,0.791992,-0.701294,-0.372803,-14.404296,37.170410,-27.404783
17520,0.782959,-0.753296,-0.340576,-16.357422,13.732909,-32.775879
17537,0.787598,-0.747314,-0.330078,-13.610839,3.234863,-33.264160
17553,0.786987,-0.720337,-0.299805,-7.446289,0.854492,-30.334471
17570,0.769531,-0.718628,-0.289185,13.488769,1.098633,-17.272949
17587,0.769531,-0.717896,-0.304443,22.033689,4.577637,-6.347656
17604,0.775879,-0.696167,-0.321533,16.113281,3.845215,-4.028320
17620,0.767700,-0.687256,-0.312256,2.624511,1.098633,-1.525879
17637,0.759766,-0.675537,-0.316162,-5.737304,2.136230,0.915527
17653,0.746582,-0.642700,-0.325928,-7.446289,3.173828,2.075195
17670,0.740234,-0.598267,-0.336548,-9.948730,3.234863,5.004883
17686,0.732422,-0.589722,-0.336060,-3.967285,0.244141,8.728027
17703,0.719360,-0.583618,-0.332031,0.549316,-0.427246,9.277344
17719,0.718628,-0.573853,-0.331421,2.746582,0.061035,8.300781
17735,0.719238,-0.564209,-0.334106,1.342773,0.183105,6.958007
17751,0.726562,-0.579102,-0.340088,-2.868652,-2.258301,5.249023
17768,0.726562,-0.583130,-0.338013,-6.896972,-6.774902,6.774902
17784,0.723633,-0.578979,-0.327759,-7.629394,-7.934570,6.958007
17801,0.730957,-0.564819,-0.315430,-8.300781,-8.361816,5.554199
17817,0.737305,-0.558960,-0.307739,-8.117676,-8.544922,2.807617
17834,0.739502,-0.560303,-0.292236,-7.263183,-8.666992,1.525879
17851,0.739136,-0.570923,-0.288452,-5.554199,-7.751464,-0.061035
17867,0.743042,-0.571533,-0.288208,-1.770019,-6.286621,-2.136230
17885,0.749023,-0.579468,-0.288696,1.892090,-5.371093,-3.784179
17902,0.750488,-0.604248,-0.288330,7.568359,-3.234863,-6.408691
17919,0.750488,-0.617920,-0.289185,7.873535,-0.122070,-5.920410
17935,0.757080,-0.638062,-0.303345,6.042480,1.770019,-4.699707
17952,0.765381,-0.640503,-0.327393,0.122070,3.540039,-1.037598
17969,0.766357,-0.633179,-0.335693,-3.234863,0.854492,2.563476
17986,0.764648,-0.615967,-0.347900,-2.807617,-0.976562,3.417969
18003,0.753174,-0.600830,-0.351318,0.488281,-3.845215,3.417969
18020,0.749756,-0.596680,-0.351563,4.638672,-4.272461,2.441406
18036,0.754028,-0.592651,-0.360718,6.164550,-4.150391,1.708984
18053,0.754639,-0.599731,-0.370972,6.958007,-6.103515,1.342773
18070,0.752075,-0.609253,-0.375610,4.821777,-10.559081,3.479004
18087,0.750977,-0.605591,-0.375366,2.380371,-13.366698,4.577637
18103,0.751709,-0.586548,-0.368042,-0.915527,-19.165039,5.187988
18120,0.750366,-0.577515,-0.362793,-0.061035,-24.353025,3.845215
18137,0.745483,-0.565063,-0.347290,1.403808,-26.916502,2.929687
18154,0.739502,-0.570923,-0.325439,4.516602,-32.470703,1.220703
18170,0.732666,-0.579224,-0.313721,5.615234,-36.254883,0.366211
18187,0.730469,-0.589600,-0.303467,4.577637,-36.499023,0.671387
18204,0.744141,-0.577637,-0.292969,0.488281,-37.414551,1.525879
18220,0.748047,-0.567261,-0.285645,-0.366211,-40.405270,-0.305176
18237,0.750977,-0.556763,-0.264893,0.732422,-42.114254,-1.831055
18254,0.752075,-0.561523,-0.240356,4.638672,-44.982906,-4.455566
18271,0.751099,-0.567383,-0.229248,7.446289,-46.630856,-5.615234
18288,0.750366,-0.580322,-0.204346,8.361816,-47.180172,-6.225585
18305,0.749756,-0.598877,-0.175903,9.338379,-48.095699,-7.385253
18322,0.748291,-0.615356,-0.164917,6.103515,-47.973629,-6.896972
18338,0.752808,-0.627319,-0.149048,2.441406,-47.241207,-6.225585
18355,0.762573,-0.623901,-0.134277,-5.126953,-44.921871,-3.967285
18372,0.765625,-0.621216,-0.128784,-8.544922,-41.625973,-1.953125
18389,0.775635,-0.609985,-0.127563,-8.972168,-40.039062,-1.098633
18406,0.794189,-0.610596,-0.118652,-8.789063,-39.611816,0.610352
18422,0.801025,-0.608032,-0.107666,-7.385253,-41.931149,1.159668
18440,0.799805,-0.601318,-0.092041,-6.408691,-42.663570,1.037598
18456,0.803467,-0.606445,-0.076538,-4.272461,-42.297359,0.671387
18473,0.809448,-0.606812,-0.064087,-2.746582,-40.893551,0.732422
18490,0.814941,-0.599609,-0.046387,-2.624511,-40.222164,0.732422
18507,0.815796,-0.601807,-0.034058,-2.380371,-37.780762,0.305176
18523,0.819336,-0.601807,-0.027588,-2.502441,-34.790039,0.061035
18540,0.821289,-0.587280,-0.022339,-2.319336,-33.752441,0.061035
18557,0.818970,-0.578613,-0.018677,0.610352,-32.714844,-0.183105
18574,0.821167,-0.589111,-0.008789,6.958007,-33.752441,-0.488281
18590,0.823730,-0.615601,0.028687,8.911133,-35.156250,-0.305176
18607,0.817993,-0.616455,0.055176,7.446289,-36.865234,1.281738
18624,0.815552,-0.607788,0.055420,1.342773,-34.606934,2.502441
18641,0.814087,-0.597534,0.063965,-1.647949,-32.897949,2.441406
18658,0.820435,-0.607910,0.090088,-5.615234,-29.846189,2.563476
18674,0.823364,-0.610352,0.102661,-8.605957,-27.954100,4.577637
18691,0.821045,-0.606812,0.114258,-9.704590,-27.038572,5.432128
18708,0.813599,-0.592773,0.120728,-10.131835,-24.169920,5.004883
18724,0.808838,-0.589478,0.123413,-7.507324,-18.737793,2.929687
18741,0.801147,-0.585327,0.121582,-5.859375,-15.258788,2.197266
18757,0.800293,-0.576782,0.102295,-2.868652,-7.141113,1.464844
18774,0.808472,-0.577637,0.086914,-0.976562,-1.098633,1.525879
18791,0.819458,-0.581665,0.066162,0.000000,-0.427246,1.220703
18808,0.818970,-0.581055,0.053467,1.953125,-1.464844,-0.488281
18825,0.817139,-0.577881,0.044556,0.610352,-2.746582,-1.708984
18842,0.818481,-0.559937,0.013794,0.000000,-3.295898,-2.563476
18858,0.823730,-0.524536,-0.014771,2.563476,-5.981445,-5.432128
18875,0.825439,-0.481934,-0.021606,17.700195,-13.244628,-14.221190
18892,0.824341,-0.337769,-0.016724,32.958984,-18.859863,-24.047850
18908,0.799561,-0.098267,-0.027100,94.421379,-33.996582,-62.133785
18925,0.743652,-0.028076,-0.039307,227.416977,-41.076656,-124.206535
18942,0.631836,-0.174072,-0.040771,300.476074,-37.109375,-156.616211
18959,0.605957,-0.653931,0.049194,436.706512,-19.531250,-202.819809
18976,0.603760,-0.931641,0.038086,548.828125,5.737304,-206.054672
18992,0.561890,-1.309082,0.016235,578.613281,19.592285,-192.687973
19009,0.520508,-1.307495,-0.177368,594.787598,64.880371,-142.089844
19026,0.467041,-1.272217,-0.434937,505.493134,123.962395,-71.777344
19043,0.263916,-1.514160,-0.952759,435.241669,149.963379,-22.094725
19059,0.015747,-1.853882,-1.326904,192.626938,190.917953,127.624504
19076,-0.156982,-1.770874,-1.629883,-252.258286,196.899399,348.205536
19093,-0.574951,-1.252563,-2.487183,-505.615204,180.419907,466.003387
19110,-0.673950,-0.637939,-3.014771,-886.108337,110.229485,651.245056
19127,-0.558105,-0.323975,-3.011597,-953.491150,-23.986814,719.299255
19144,-0.225952,0.039551,-2.384644,-898.620544,-104.553215,714.538513
19161,0.023437,0.277222,-1.558472,-800.170837,-230.957016,668.640076
19178,0.160889,0.579224,-1.235352,-751.892029,-299.255371,611.511230
19194,0.166992,1.066040,-0.920898,-713.378845,-323.364227,583.374023
19211,-0.001465,2.046143,-0.662476,-497.680634,-360.839813,483.276337
19228,0.071045,2.481567,-0.471924,-197.753891,-377.014130,218.811020
19244,0.174805,2.578979,0.060425,-69.763184,-348.022430,58.044430
19261,0.211548,2.115967,0.523560,134.887695,-229.186996,-185.241684
19278,0.296509,1.573364,0.697998,233.398422,-185.241684,-305.603027
19295,0.466919,0.444824,1.049927,228.515610,-217.590317,-351.135223
19311,0.302246,-0.387817,1.343262,293.823242,-322.753876,-413.452118
19329,0.147217,-0.802734,1.336304,389.282196,-352.600067,-353.027313
19346,-0.013550,-1.390991,0.872925,379.577606,-309.631348,-292.968750
19363,0.145508,-2.071533,0.733765,298.339844,-207.397446,-118.835442
19379,0.148926,-2.102051,0.724487,306.335449,-77.087402,102.539055
19396,0.201050,-1.175781,0.394531,336.303680,-17.089844,169.555649
19412,0.553589,-1.064819,0.062500,453.796356,42.663570,219.726547
19429,0.707520,-1.071289,-0.044800,496.948212,46.447750,257.995605
19445,0.777954,-0.711670,0.025635,500.488251,44.433590,267.456055
19462,0.784912,-0.433716,0.142700,532.409668,50.048824,234.374985
19479,0.817017,-0.523682,0.193848,533.447266,49.804684,173.278793
19495,0.826538,-0.743164,0.316162,482.604950,49.255367,151.672363
19512,0.780029,-0.713501,0.348511,309.875488,66.162109,122.009270
19528,0.759521,-0.615112,0.304810,128.540039,103.149406,100.219719
19545,0.764893,-0.401001,0.133423,54.016109,119.445793,91.857903
19561,0.784912,-0.321533,0.032593,-52.001949,133.422852,80.505363
19577,0.820312,-0.171753,-0.109863,-88.134758,129.272461,74.829102
19594,0.816040,-0.121338,-0.155640,-108.215324,108.520500,53.039547
19611,0.812866,-0.131958,-0.167725,-75.439453,89.416496,21.667479
19628,0.768677,-0.201660,-0.207153,-51.513668,75.378418,-14.099120
19645,0.729614,-0.362549,-0.277954,-44.128414,69.274902,-32.592773
19662,0.726440,-0.468750,-0.306763,-35.583496,54.931637,-55.786129
19678,0.735840,-0.661377,-0.323242,-27.832029,37.780762,-56.823727
19696,0.753174,-0.814819,-0.285156,-20.324705,31.372068,-51.269527
19712,0.764893,-0.850708,-0.279297,-4.150391,27.160643,-37.536621
19729,0.787231,-0.834717,-0.309814,3.112793,24.230955,-31.982420
19746,0.819336,-0.813965,-0.326904,4.333496,19.775391,-31.433104
19762,0.831299,-0.813599,-0.315186,3.356933,5.249023,-26.367186
19779,0.832031,-0.801636,-0.271118,1.159668,-2.441406,-20.324705
19796,0.811035,-0.756348,-0.237427,-6.408691,-13.305663,-6.103515
19813,0.801636,-0.729370,-0.222290,-12.634276,-17.089844,4.394531
19830,0.788940,-0.669067,-0.195312,-15.258788,-14.648437,10.070800
19846,0.780029,-0.601807,-0.189453,-15.930175,-12.390136,11.596679
19863,0.775391,-0.578857,-0.192993,-15.930175,-7.812500,12.268065
19880,0.779175,-0.552002,-0.212402,-13.549804,-6.042480,10.498046
19897,0.775024,-0.542847,-0.220337,-10.986327,-6.469726,9.338379
19914,0.766846,-0.548462,-0.220581,-2.075195,-4.760742,4.821777
19931,0.755127,-0.557251,-0.235107,4.943848,0.122070,-0.610352
19947,0.754150,-0.561768,-0.252197,8.911133,1.831055,-2.563476
19964,0.755981,-0.567993,-0.255249,17.456055,2.380371,-4.821777
19980,0.757446,-0.592529,-0.257202,19.775391,1.464844,-5.432128
19997,0.755249,-0.635498,-0.259277,16.418457,-2.075195,-5.126953
20013,0.753052,-0.649414,-0.260498,4.333496,-6.103515,-1.892090
20029,0.750854,-0.635132,-0.262329,-1.586914,-7.385253,-0.366211
20046,0.751465,-0.598267,-0.260986,-6.103515,-8.117676,1.098633
20062,0.752563,-0.583008,-0.259033,-0.915527,-7.995605,-0.183105
20079,0.756226,-0.571777,-0.253784,3.417969,-8.422852,-1.708984
20095,0.758057,-0.571167,-0.256348,11.535644,-9.765625,-4.699707
20112,0.760742,-0.578857,-0.258423,18.737793,-11.291503,-7.324218
20128,0.758545,-0.598389,-0.260742,21.606443,-12.023925,-8.422852
20145,0.757202,-0.609985,-0.259399,22.766111,-13.122558,-9.460449
20162,0.758179,-0.619507,-0.264038,16.113281,-13.916015,-8.422852
20179,0.760620,-0.605835,-0.287109,12.207030,-14.953612,-8.178711
20195,0.759888,-0.598389,-0.296021,9.582520,-20.263670,-8.422852
20212,0.757202,-0.591187,-0.297974,12.512206,-27.893064,-9.521484
20229,0.748169,-0.598145,-0.288208,14.587401,-30.822752,-10.620116
20246,0.742920,-0.605103,-0.284424,14.709472,-34.179687,-12.207030
20263,0.741577,-0.611938,-0.279053,9.338379,-38.696289,-11.840819
20280,0.746216,-0.608887,-0.268433,6.774902,-42.297359,-11.596679
20296,0.749390,-0.614624,-0.255127,6.042480,-50.842281,-12.207030
20313,0.751465,-0.633057,-0.222534,6.469726,-58.349606,-11.779784
20330,0.747559,-0.634399,-0.201904,5.554199,-60.913082,-11.291503
20347,0.746826,-0.633667,-0.193237,4.272461,-63.537594,-10.681151
20363,0.750366,-0.638062,-0.173950,3.234863,-64.453125,-10.375976
20380,0.748047,-0.611450,-0.162476,2.868652,-65.307617,-10.620116
20397,0.747437,-0.597900,-0.159424,7.507324,-67.504883,-12.451171
20413,0.751343,-0.600098,-0.147461,14.953612,-71.533203,-14.282226
20430,0.743286,-0.612183,-0.124634,17.211914,-73.547363,-15.075683
20447,0.738525,-0.621948,-0.113770,19.958496,-75.500488,-16.357422
20464,0.733154,-0.654541,-0.089111,20.629881,-75.439453,-16.113281
20481,0.732056,-0.667236,-0.077637,19.042969,-75.683594,-15.075683
20498,0.732788,-0.671265,-0.055054,16.662598,-79.895020,-13.427733
20515,0.728516,-0.677124,-0.037842,21.545408,-85.266106,-13.488769
20532,0.714966,-0.702393,0.002197,24.414061,-86.364738,-13.549804
20548,0.711304,-0.720215,0.045166,25.817869,-84.533684,-12.451171
20565,0.712280,-0.724487,0.065674,24.169920,-79.650879,-7.934570
20582,0.716064,-0.727661,0.103516,23.559568,-76.293945,-4.028320
20599,0.725464,-0.698242,0.130371,22.521971,-68.420410,2.319336
20616,0.732300,-0.690918,0.142822,23.498533,-61.157223,3.295898
20633,0.734253,-0.706177,0.169800,24.230955,-57.617184,2.563476
20649,0.737793,-0.712036,0.192017,22.521971,-49.255367,2.136230
20666,0.739624,-0.712646,0.199951,18.737793,-40.649410,3.723144
20683,0.744385,-0.709229,0.209229,16.357422,-36.315918,5.065917
20699,0.762939,-0.683350,0.210205,10.620116,-29.663084,7.263183
20716,0.770752,-0.675781,0.214355,8.178711,-27.404783,7.019042
20733,0.784302,-0.676270,0.229248,7.812500,-26.672361,6.713867
20750,0.785645,-0.667358,0.235840,6.530761,-23.376463,6.347656
20766,0.782593,-0.662231,0.233765,4.394531,-16.845703,6.286621
20783,0.775513,-0.654907,0.229980,3.051758,-12.695312,7.080078
20800,0.776611,-0.646729,0.225098,-1.464844,-3.906250,9.094238
20816,0.783813,-0.615356,0.203247,-5.432128,1.281738,7.873535
20833,0.784790,-0.584595,0.179687,-4.760742,2.075195,5.798339
20850,0.779663,-0.589966,0.169556,0.976562,2.624511,1.892090
20866,0.769043,-0.604736,0.150391,2.319336,3.051758,0.610352
20883,0.759644,-0.618286,0.134155,3.051758,4.028320,-0.915527
20900,0.755493,-0.631104,0.122803,3.723144,5.187988,-1.342773
20916,0.754150,-0.646362,0.098755,2.258301,5.554199,-1.342773
20933,0.748535,-0.638428,0.069458,-3.601074,5.187988,-0.793457
20949,0.748657,-0.624268,0.053345,-6.469726,2.136230,-2.258301
20966,0.755493,-0.570190,0.028442,-4.638672,-1.342773,-4.516602
20983,0.755615,-0.505005,0.021851,10.620116,-11.291503,-12.695312
20999,0.751465,-0.458374,0.020630,43.457027,-21.789549,-28.381346
21017,0.733276,-0.359253,0.039185,67.077637,-26.794432,-40.222164
21033,0.708740,-0.232666,0.037109,128.173828,-38.269043,-75.195312
21050,0.670776,-0.202881,0.041382,203.491196,-53.894039,-125.427238
21066,0.563721,-0.433594,0.140869,240.417465,-56.518551,-150.451660
21083,0.438599,-0.845947,0.232788,291.992187,-34.790039,-192.687973
21099,0.375610,-1.042358,0.235596,303.100586,15.014647,-221.557602
21116,0.363281,-1.410400,0.250366,281.188965,38.513184,-219.238266
21132,0.368652,-1.476196,0.274292,243.408188,83.068840,-159.545898
21149,0.334595,-1.422729,0.191528,229.064926,163.574203,-76.416016
21166,0.137329,-1.560791,-0.160889,242.858871,212.951645,-36.560059
21183,-0.104126,-2.281616,-0.600830,162.475571,312.805176,70.129395
21200,-0.214722,-2.536987,-0.899048,-231.811508,369.934052,291.931152
21216,-0.640747,-2.349976,-1.636719,-449.401825,368.896454,429.870575
21233,-0.997559,-1.429077,-2.110962,-719.970642,338.867157,655.761658
21250,-0.944458,-1.067505,-2.128296,-776.367126,303.039551,759.460388
21266,-0.476318,-0.713135,-2.173096,-773.010193,268.127441,776.306091
21283,-0.208130,-0.529053,-2.058594,-724.731384,145.324707,749.572693
21300,0.158081,-0.132202,-1.732910,-596.740723,17.028809,674.560486
21317,0.455322,0.303711,-1.468018,-499.694794,-51.940914,627.746582
21334,0.358276,0.880371,-1.110962,-314.147949,-207.702621,529.052734
21350,0.202881,1.234619,-0.868408,-136.779785,-332.397430,392.822235
21367,0.028931,1.861694,-0.219116,-63.964840,-344.055145,291.320801
21383,0.119019,2.013306,-0.018921,-33.813477,-264.831543,39.733887
21400,0.387207,2.159668,0.284058,51.269527,-189.819321,-181.518539
21416,0.615845,1.721558,0.639160,95.092766,-185.974106,-270.751953
21433,0.687378,1.332031,0.813843,109.619133,-253.662094,-398.864716
21450,0.608521,0.597290,1.068604,128.479004,-312.316895,-430.969208
21466,0.282471,-0.001587,0.972412,235.656723,-436.401337,-415.771454
21483,0.197510,-0.396484,1.005127,352.966278,-440.246552,-300.231934
21500,0.072388,-1.688477,0.957764,368.041962,-381.469696,-203.308090
21517,-0.187256,-1.545776,1.045410,328.124969,-242.797836,26.000975
21533,-0.170898,-1.429810,1.025146,380.859344,-116.821281,165.039047
21550,0.322510,-1.517212,0.743530,413.818329,-53.283688,224.121078
21566,0.701660,-0.911499,0.409546,394.592255,54.443356,321.044922
21583,0.751831,-0.539795,0.332275,460.388153,94.726555,352.111786
21600,0.781494,-0.243774,0.187256,523.315430,97.351067,343.566864
21616,0.838257,-0.364014,0.234375,580.261230,87.036125,304.016113
21633,0.837036,-0.435791,0.318726,563.476563,84.655754,249.999985
21649,0.823486,-0.586792,0.431641,526.550293,88.317863,223.876938
21666,0.781250,-0.585693,0.452881,333.435028,106.018059,175.720200
21682,0.760376,-0.519775,0.435303,95.031731,142.150879,130.187988
21699,0.755981,-0.282715,0.222046,7.934570,160.705551,112.060539
21715,0.766357,-0.164062,0.061157,-144.165039,172.790512,81.542961
21732,0.792114,-0.034424,-0.195435,-191.589340,167.114243,67.199707
21749,0.834351,-0.032593,-0.322998,-209.350571,143.737793,37.292480
21766,0.849976,-0.074829,-0.343384,-151.428223,115.051262,1.708984
21782,0.873779,-0.275879,-0.369995,-79.833984,84.289543,-17.395020
21799,0.875488,-0.523926,-0.364502,-56.457516,66.345215,-17.761230
21816,0.867676,-0.600952,-0.343994,-40.405270,36.926270,-12.817382
21833,0.865601,-0.642700,-0.301025,-37.719727,24.536131,-9.338379
21850,0.888794,-0.568604,-0.284058,-34.973145,23.315428,-7.202148
21867,0.910767,-0.470337,-0.275146,-26.489256,19.104004,-1.525879
21884,0.915161,-0.443115,-0.261230,-7.812500,8.056641,1.464844
21900,0.915649,-0.434204,-0.215576,2.868652,2.502441,1.220703
21917,0.911377,-0.446533,-0.193359,13.061522,-2.929687,-0.915527
21934,0.905762,-0.465820,-0.160156,2.441406,-2.075195,-2.441406
21951,0.909302,-0.475098,-0.148437,-8.178711,-1.708984,-1.403808
21968,0.916626,-0.474731,-0.140503,-33.203125,-4.882812,3.356933
21984,0.929321,-0.446533,-0.107910,-44.433590,-8.300781,3.967285
22001,0.928955,-0.459473,-0.078979,-43.029781,-8.728027,3.173828
22018,0.923828,-0.486450,-0.060669,-36.926270,-6.164550,5.004883
22035,0.916016,-0.521240,-0.033813,-38.940430,4.089355,12.573241
22052,0.920532,-0.489502,-0.039551,-43.090816,10.314940,16.601562
22069,0.938477,-0.432129,-0.050415,-48.034664,15.991210,20.751951
22085,0.939819,-0.419922,-0.044922,-36.865234,14.770507,19.653320
22102,0.927979,-0.445679,-0.025269,-27.038572,15.502929,18.493652
22119,0.910400,-0.495239,0.000244,-16.479492,21.484373,18.737793
22135,0.906616,-0.520630,0.009277,-24.536131,31.921385,23.681639
22152,0.904907,-0.540161,0.003906,-34.301758,36.926270,27.465818
22169,0.903076,-0.516235,-0.019165,-57.067867,41.564938,35.156250
22186,0.894287,-0.512817,-0.019165,-66.833496,41.015621,41.564938
22203,0.868652,-0.539429,-0.013306,-66.894531,42.419430,44.616695
22219,0.848145,-0.579712,-0.001709,-73.486328,50.598141,50.842281
22236,0.836426,-0.606689,0.005371,-92.224113,64.941406,60.180660
22252,0.822510,-0.602417,-0.031616,-107.666008,73.120117,65.673828
22268,0.824097,-0.561157,-0.064087,-132.873535,83.923332,72.143555
22285,0.824829,-0.512329,-0.110352,-132.751465,85.693352,73.242187
22301,0.807495,-0.507690,-0.124878,-110.168449,85.815422,73.852539
22318,0.793335,-0.539429,-0.126953,-82.763664,89.599602,76.660156
22334,0.772949,-0.606445,-0.160645,-79.956055,94.604485,81.542961
22351,0.786011,-0.576782,-0.235474,-104.431145,103.576653,94.909660
22367,0.802124,-0.529663,-0.276245,-139.282227,103.698723,102.294914
22384,0.801025,-0.400146,-0.338379,-148.071289,102.050774,100.646965
22401,0.752563,-0.357056,-0.368896,-143.859863,100.769035,89.050285
22417,0.718262,-0.365601,-0.375977,-125.854485,102.355949,78.735352
22434,0.693115,-0.387207,-0.413086,-118.286125,104.492180,77.819824
22451,0.708008,-0.395264,-0.443726,-117.309563,109.252922,83.618156
22467,0.754028,-0.383911,-0.513306,-130.371094,108.520500,91.796867
22484,0.777100,-0.331055,-0.590820,-138.061523,106.506340,93.627922
22501,0.765259,-0.301025,-0.626709,-148.925781,102.966301,84.838860
22518,0.715942,-0.297729,-0.671265,-140.869141,99.487297,70.556641
22534,0.695190,-0.371704,-0.685669,-132.995605,96.923820,69.152832
22551,0.696533,-0.392944,-0.691895,-125.549309,88.806145,77.575684
22568,0.703125,-0.380737,-0.694336,-127.258293,73.913574,89.599602
22585,0.684814,-0.346924,-0.682373,-129.272461,66.772461,93.627922
22602,0.668335,-0.326050,-0.686035,-135.925293,61.462399,94.543449
22619,0.641357,-0.290283,-0.705322,-141.174316,65.490723,89.172356
22636,0.640259,-0.280640,-0.745972,-141.174316,67.443848,86.242668
22652,0.636230,-0.277100,-0.792603,-134.460449,67.321777,82.519524
22670,0.623047,-0.289185,-0.800659,-123.596184,64.880371,79.956055
22686,0.601929,-0.328003,-0.787964,-118.835442,63.232418,78.125000
22703,0.587280,-0.364502,-0.764404,-122.009270,57.373043,74.157715
22720,0.576416,-0.378906,-0.751343,-137.695312,53.039547,72.937012
22737,0.549805,-0.391479,-0.738770,-146.423340,53.710934,73.913574
22753,0.541138,-0.365723,-0.762207,-158.081055,60.791012,78.247070
22770,0.553101,-0.355347,-0.781250,-157.287598,67.565918,83.251945
22787,0.591675,-0.369141,-0.815552,-154.174805,67.871094,84.716789
22804,0.623291,-0.404663,-0.840454,-148.559570,63.781734,83.984367
22821,0.630737,-0.427734,-0.845825,-147.521973,61.340328,84.289543
22837,0.634277,-0.457275,-0.844360,-149.230957,61.401363,86.181633
22854,0.636719,-0.449097,-0.836792,-155.944824,61.035152,91.918938
22871,0.637451,-0.429565,-0.832397,-162.536606,58.410641,98.632805
22888,0.630371,-0.349243,-0.822998,-162.353500,56.823727,100.036613
22904,0.619019,-0.262329,-0.810181,-149.536133,53.649899,93.017570
22921,0.612305,-0.265747,-0.792480,-129.211426,50.964352,78.308105
22937,0.646606,-0.331543,-0.771362,-125.671379,51.208492,73.120117
22954,0.677246,-0.315186,-0.764771,-139.648437,53.039547,73.303223
22971,0.649658,-0.177124,-0.783325,-154.052734,58.410641,63.049313
22987,0.615356,-0.141479,-0.810669,-150.146484,59.509274,47.119137
23003,0.636353,-0.187622,-0.798462,-122.558586,47.729488,20.996092
23020,0.689941,-0.306519,-0.729004,-107.055656,37.292480,19.042969
23037,0.705078,-0.378296,-0.645752,-94.482414,22.521971,24.230955
23054,0.702271,-0.388550,-0.624634,-114.868156,24.353025,25.329588
23071,0.699097,-0.321167,-0.641479,-128.723145,29.602049,23.132322
23088,0.690918,-0.246460,-0.672363,-133.056641,39.001465,8.422852
23104,0.698486,-0.242920,-0.683105,-96.496574,36.437988,-15.319823
23121,0.703979,-0.341187,-0.656738,-71.105957,29.418943,-23.010252
23137,0.672607,-0.519531,-0.601074,-36.621094,19.775391,-19.897461
23154,0.659668,-0.552612,-0.583984,-48.889156,25.207518,-6.408691
23171,0.666260,-0.513062,-0.611572,-63.903805,29.785154,-2.807617
23187,0.715698,-0.440918,-0.672974,-80.627434,28.503416,-2.868652
23204,0.735840,-0.401123,-0.681519,-57.373043,10.681151,-7.812500
23221,0.722534,-0.419067,-0.646973,-33.508301,1.647949,-10.742187
23238,0.665405,-0.558594,-0.593750,5.859375,-3.112793,-9.948730
23254,0.643921,-0.605713,-0.568604,6.530761,7.385253,2.380371
23271,0.632935,-0.578369,-0.545776,-4.089355,13.488769,8.972168
23288,0.646606,-0.495117,-0.559326,-22.827147,18.798828,15.197753
23304,0.653442,-0.460571,-0.558350,-23.986814,11.291503,14.465331
23321,0.655762,-0.417480,-0.548828,-18.005371,5.798339,13.122558
23338,0.668335,-0.400269,-0.538818,-1.708984,-0.671387,9.216309
23354,0.674683,-0.402222,-0.535767,7.385253,0.854492,4.699707
23371,0.683838,-0.419434,-0.526611,6.347656,3.356933,2.746582
23388,0.701172,-0.435547,-0.536743,-7.019042,8.544922,0.061035
23404,0.715454,-0.426270,-0.550537,-22.033689,8.789063,-3.784179
23421,0.723022,-0.397583,-0.565918,-25.573729,6.591796,-8.239746
23438,0.702026,-0.382324,-0.516113,-18.005371,3.234863,-23.498533
23455,0.687866,-0.377930,-0.479614,11.291503,16.845703,-49.560543
23472,0.623413,-0.339478,-0.409912,27.038572,31.188963,-69.580078
23488,0.565918,-0.436279,-0.297119,64.147949,78.552246,-119.873039
23505,0.543091,-0.552368,-0.257813,123.413078,136.840820,-170.349106
23521,0.469849,-0.793335,-0.256104,140.197754,159.057617,-195.861801
23538,0.417358,-0.868408,-0.249634,187.072739,194.457993,-246.154770
23554,0.250854,-0.980957,-0.323608,224.243149,262.756348,-228.088364
23571,-0.428833,-1.671997,-0.579224,174.743637,325.439423,-168.090805
23588,-0.754761,-2.067749,-0.980225,-98.083488,480.957001,69.396973
23605,-0.775635,-2.241211,-2.272339,-543.762207,466.064423,408.325165
23621,-0.940308,-1.465576,-2.637207,-619.018555,382.995575,556.884766
23638,-1.110352,-1.260010,-2.421997,-516.235352,188.110336,748.962341
23655,-1.167847,-1.001709,-2.028809,-500.244110,41.259762,790.954529
23672,-0.728027,-0.542725,-1.600586,-522.521973,-19.897461,765.136658
23689,-0.403442,-0.395996,-1.398682,-431.396454,-146.972656,680.480896
23706,-0.038818,0.090698,-0.943115,-335.388153,-270.446777,611.389160
23722,-0.164185,0.829468,-0.752197,-309.631348,-315.979004,581.604004
23739,-0.172485,1.444580,-0.695435,-282.714844,-393.371552,418.334930
23756,0.244141,2.122803,-0.064819,-201.110825,-390.808075,128.845215
23773,0.538696,2.160278,0.332886,-109.008781,-362.792938,-10.803222
23789,0.589233,2.082520,0.628418,58.288570,-332.214325,-222.106918
23806,0.490479,1.208618,1.099731,142.761230,-368.469208,-353.881805
23823,0.306519,0.032593,1.098145,149.597168,-394.409149,-398.986786
23839,0.209595,-0.486450,0.966553,100.402824,-454.467743,-404.540985
23856,-0.192505,-1.059448,0.770508,123.291008,-470.947235,-374.755829
23872,-0.212524,-1.883545,0.744995,255.798325,-416.198700,-245.239243
23889,-0.232544,-2.413452,0.594604,314.575195,-292.419434,60.791012
23906,-0.564819,-2.094849,0.422241,335.327118,-226.928696,206.909164
23922,-0.129761,-1.764893,-0.049805,426.269501,-160.705551,328.613251
23939,0.132935,-1.724609,0.141357,495.117157,-163.696274,384.582489
23956,0.343628,-1.312012,0.208252,519.531250,-137.390137,413.330048
23972,0.364990,-1.155762,0.179321,554.443359,-113.159172,441.711395
23988,0.301880,-1.143433,0.304932,502.502411,-130.615234,434.204071
24005,0.319824,-1.072021,0.740723,480.041473,-120.544426,405.639618
24021,0.490601,-0.821167,0.845215,425.353973,-23.742674,328.735321
24038,0.519653,-0.687744,0.755371,234.863266,111.450188,256.347656
24055,0.536011,-0.333862,0.514648,129.272461,166.076645,217.407211
24071,0.548828,-0.229126,0.417358,2.380371,246.154770,156.616211
24088,0.535522,-0.094360,0.035400,-96.984856,301.025391,114.318840
24105,0.531494,0.018433,-0.349609,-127.929680,309.936523,89.416496
24121,0.542603,0.008545,-0.462036,-122.253410,303.100586,45.959469
24138,0.636963,-0.216553,-0.658569,-99.182121,288.757324,33.081055
24155,0.701172,-0.442627,-0.808228,-70.190430,221.923813,13.366698
24171,0.684814,-0.526367,-0.842529,-83.007805,135.009766,-2.624511
24188,0.615967,-0.610596,-0.844360,-95.642082,99.243156,-9.338379
24205,0.608887,-0.655396,-0.830078,-87.036125,50.415035,-23.132322
24221,0.614380,-0.668945,-0.808228,-44.372555,20.935057,-30.639647
24238,0.630005,-0.650024,-0.715210,-15.014647,13.183593,-31.494139
24255,0.657227,-0.717285,-0.666382,30.334471,8.972168,-27.893064
24271,0.673218,-0.771729,-0.658936,25.512693,1.708984,-14.160155
24288,0.678833,-0.783691,-0.611206,10.009766,-4.394531,-4.455566
24305,0.671875,-0.695923,-0.553833,-17.578125,-11.352538,10.314940
24321,0.671997,-0.647705,-0.538818,-24.963377,-10.375976,13.427733
24338,0.668213,-0.549438,-0.526611,-21.240232,-9.338379,11.352538
24354,0.655151,-0.514893,-0.508789,1.647949,-7.019042,3.784179
24371,0.648560,-0.529907,-0.505737,26.855467,-3.051758,-1.708984
24388,0.635498,-0.569702,-0.501221,31.616209,-1.098633,-2.136230
24405,0.636719,-0.582642,-0.499390,25.695799,1.220703,-0.122070
24421,0.637207,-0.572266,-0.500000,11.047362,0.671387,2.441406
24438,0.641357,-0.520142,-0.502808,6.103515,0.610352,2.319336
24455,0.638062,-0.477539,-0.501221,5.004883,1.953125,-2.380371
24471,0.631714,-0.476440,-0.500977,8.300781,4.455566,-9.094238
24488,0.629028,-0.481079,-0.504883,7.324218,5.310058,-11.291503
24504,0.636963,-0.483032,-0.494873,4.821777,3.601074,-13.977050
24521,0.631836,-0.520996,-0.442017,7.080078,1.953125,-16.296387
24537,0.612183,-0.561157,-0.399414,8.483887,3.417969,-17.761230
24554,0.604858,-0.559082,-0.385986,12.512206,10.559081,-21.484373
24571,0.584351,-0.564819,-0.360718,17.089844,16.418457,-23.742674
24587,0.581543,-0.597168,-0.380371,28.015135,30.517576,-27.770994
24604,0.589600,-0.613159,-0.393433,31.433104,32.897949,-25.390623
24621,0.573608,-0.629272,-0.375000,32.226562,30.822752,-22.277830
24637,0.541870,-0.613770,-0.364380,35.217285,34.057617,-19.592285
24654,0.530029,-0.598633,-0.373047,32.592773,46.691891,-20.141600
24670,0.510986,-0.568726,-0.410034,29.052732,53.344723,-20.324705
24687,0.486938,-0.544678,-0.445679,22.033689,62.438961,-20.019531
24703,0.474243,-0.531250,-0.452881,20.385740,67.443848,-18.249512
24720,0.437744,-0.520630,-0.463257,20.446775,70.495605,-17.089844
24737,0.390381,-0.524048,-0.500244,16.296387,79.711914,-16.113281
24754,0.373291,-0.534546,-0.530029,4.272461,90.209953,-15.747069
24770,0.355591,-0.555176,-0.591309,-3.356933,93.627922,-15.136718
24787,0.324951,-0.526367,-0.653076,-14.892577,96.069328,-15.624999
24804,0.312134,-0.509277,-0.680542,-11.169433,93.994133,-21.728514
24821,0.280518,-0.507202,-0.737671,-4.516602,91.491692,-25.817869
24838,0.246948,-0.541260,-0.789795,8.728027,86.120598,-33.020020
24854,0.232544,-0.579224,-0.802124,11.291503,81.298820,-33.386230
24871,0.196899,-0.681274,-0.814697,3.295898,80.078125,-28.930662
24888,0.172729,-0.664917,-0.843872,-27.526854,81.726067,-15.808105
24905,0.168823,-0.614014,-0.876709,-47.180172,83.435051,-9.155273
24922,0.161011,-0.560791,-0.956177,-46.081539,80.688469,-10.314940
24939,0.144775,-0.602539,-0.982178,-33.874512,66.406250,-17.272949
24956,0.125000,-0.646484,-0.983276,-26.184080,53.344723,-21.301268
24973,0.091187,-0.709595,-1.011597,-26.123045,51.696774,-20.446775
24990,0.092651,-0.695068,-1.076050,-25.329588,52.368160,-17.822266
25007,0.102051,-0.689087,-1.104004,-16.113281,43.151852,-17.639160
25024,0.120728,-0.706787,-1.117798,-0.366211,17.883301,-19.836426
25041,0.117188,-0.746460,-1.072021,6.225585,3.295898,-19.653320
25058,0.110474,-0.765259,-1.035278,8.361816,-16.723633,-14.831542
25074,0.122925,-0.758179,-0.953247,-5.004883,-23.620604,-8.422852
25091,0.156128,-0.689697,-0.888062,-12.878417,-26.184080,-6.469726
25108,0.168457,-0.640259,-0.852051,-20.812986,-33.996582,-8.911133
25124,0.185059,-0.542847,-0.768433,-19.042969,-38.574219,-14.343261
25141,0.176270,-0.440308,-0.636230,-9.521484,-47.851559,-34.790039
25158,0.148804,-0.409790,-0.553345,21.362303,-38.330078,-67.932129
25175,0.105835,-0.459229,-0.397583,60.241695,0.183105,-107.849113
25192,0.076050,-0.585693,-0.190674,71.960449,26.306150,-129.882812
25209,0.015381,-0.645630,-0.125610,87.585442,92.224113,-183.410629
25226,-0.313599,-0.781738,-0.141846,56.274410,200.683578,-245.727524
25243,-0.670166,-1.120728,-0.328735,4.089355,267.761230,-269.287109
25260,-0.927002,-1.679810,-0.636230,-136.413574,420.593231,-232.666000
25277,-0.870972,-1.704102,-1.187988,-297.119141,531.250000,-28.991697
25294,-1.004272,-2.051270,-1.651001,-285.644531,517.395020,136.718750
25311,-1.972534,-2.425659,-1.510620,-294.128418,440.490692,523.559570
25328,-2.134033,-1.914917,-1.719482,-402.343719,357.177704,770.385681
25345,-1.775146,-0.990356,-1.656982,-457.702606,296.569824,811.584412
25362,-0.994019,-0.864380,-1.524048,-538.574219,180.847153,812.805115
25379,-0.626465,-0.754028,-1.455322,-497.436493,8.544922,781.433044
25395,-0.261963,-0.227905,-1.056519,-463.928192,-91.186516,757.751404
25412,-0.287231,0.775879,-0.918457,-403.930634,-243.347153,683.593689
25429,-0.288940,1.473389,-0.812500,-331.054657,-349.975555,450.500458
25446,0.185791,2.081787,0.018677,-300.292969,-373.474091,285.095215
25463,0.630493,2.162720,0.594482,-157.714844,-368.225067,9.277344
25479,0.635254,2.029053,0.795288,27.160643,-416.686981,-188.232407
25496,0.196045,1.199463,1.118286,80.932610,-451.171844,-278.198242
25513,-0.343384,0.110229,1.110962,132.507324,-508.300751,-407.043427
25529,-0.571777,-0.455444,1.166626,74.218750,-511.962860,-414.672821
25546,-0.695190,-0.674438,0.760010,33.142090,-474.426239,-377.258270
25563,-0.810547,-1.090454,0.736450,13.427733,-426.696747,-291.076660
25580,-0.915894,-1.544067,0.780273,117.126457,-333.557098,-75.927734
25597,-1.316162,-1.699463,0.871094,159.729004,-264.892578,43.701168
25613,-1.073486,-1.584717,0.619995,221.862778,-171.936020,209.838852
25630,-0.920044,-1.527954,0.741333,329.711884,-122.131340,320.861816
25647,-0.593018,-1.328247,0.500488,388.427704,-81.970207,372.863739
25664,-0.309570,-1.068970,0.186279,489.929169,-58.410641,441.223114
25681,-0.233765,-1.041504,0.285767,566.528320,-83.312981,456.665009
25698,-0.246460,-1.245850,0.405273,572.387695,-75.256348,453.796356
25715,-0.186035,-1.142578,0.398438,554.016113,-42.846676,395.812958
25732,-0.052124,-1.009155,0.357788,550.292969,10.559081,283.325195
25749,0.072266,-0.971436,0.250366,422.485321,97.290031,206.726059
25766,0.063965,-0.658447,0.088257,323.852509,139.526367,182.861313
25782,0.083618,-0.527832,0.034790,167.724594,204.956039,129.089355
25799,0.114624,-0.546021,-0.170410,86.181633,263.122559,79.040527
25816,0.110840,-0.510864,-0.473389,31.311033,278.930664,61.279293
25832,0.103027,-0.509644,-0.573242,-66.040039,274.230957,34.301758
25849,0.123901,-0.534424,-0.676514,-88.928215,252.441391,22.705076
25865,0.146118,-0.596558,-0.781738,-67.016602,184.753403,4.943848
25882,0.103516,-0.581787,-0.826904,8.911133,106.628410,-14.770507
25899,-0.056763,-0.658447,-0.838257,44.128414,76.538086,-32.226562
25916,-0.121826,-0.895264,-0.824463,63.720699,46.142574,-61.401363
25933,-0.110962,-0.983887,-0.803833,26.672361,30.578611,-48.706051
25950,-0.056763,-1.059082,-0.757202,-1.831055,17.700195,-12.512206
25967,-0.012085,-0.980957,-0.752686,-13.183593,9.643555,-0.549316
25984,0.018311,-0.858521,-0.711426,-26.550291,-8.666992,6.530761
26001,0.027710,-0.813965,-0.678833,-20.568846,-18.920898,3.601074
26018,0.033569,-0.767334,-0.613159,-13.671874,-19.958496,-0.061035
26035,0.023071,-0.784302,-0.572144,0.183105,-14.648437,-7.873535
26052,0.019897,-0.820190,-0.564941,5.859375,-2.136230,-8.483887
26069,0.028320,-0.884033,-0.561890,2.868652,3.540039,-5.676269
26086,0.037964,-0.899292,-0.561035,-11.352538,9.582520,0.122070
26103,0.037354,-0.897461,-0.567749,-29.357908,10.437011,4.577637
26119,0.033936,-0.904297,-0.566040,-38.085937,9.948730,7.507324
26136,0.016724,-0.942627,-0.539429,-54.809566,9.887695,14.221190
26153,0.010132,-0.962158,-0.531494,-77.575684,14.160155,22.888182
26169,0.026611,-0.961304,-0.530640,-90.454094,15.563964,28.381346
26186,0.042236,-0.945557,-0.487183,-105.163567,12.390136,40.954586
26203,0.038330,-0.931274,-0.458862,-99.792473,8.422852,49.255367
26220,0.036255,-0.926147,-0.406128,-95.214836,8.850098,50.476070
26236,0.031982,-0.936157,-0.361206,-91.125481,13.122558,47.424313
26253,0.033447,-0.932129,-0.351685,-94.360344,20.019531,41.992184
26269,0.062622,-0.901489,-0.345215,-96.252434,22.338865,39.916992
26286,0.078857,-0.890015,-0.334473,-89.111320,21.728514,36.865234
26303,0.100586,-0.908691,-0.295776,-69.580078,16.296387,36.804199
26319,0.091919,-0.965820,-0.230225,-61.889645,14.587401,37.414551
26336,0.073975,-1.018921,-0.188477,-64.331055,20.629881,39.916992
26353,0.070068,-1.126099,-0.155151,-102.783195,38.757324,49.438473
26369,0.124023,-1.037720,-0.152466,-126.586906,45.898434,55.358883
26386,0.155273,-0.971558,-0.126831,-142.578125,50.964352,58.837887
26403,0.182861,-0.922485,-0.051514,-131.225586,50.964352,54.870602
26419,0.177368,-0.961182,-0.015137,-95.886223,55.053707,41.259762
26436,0.174927,-0.998047,-0.007324,-73.120117,64.575195,31.677244
26453,0.175415,-1.055054,0.012817,-67.749023,69.580078,29.724119
26469,0.192871,-1.083984,0.013428,-62.316891,78.430176,31.738279
26486,0.204346,-1.087891,-0.000244,-58.044430,79.650879,41.381832
26503,0.188965,-1.063843,-0.014038,-52.307125,76.782227,44.006344
26520,0.155884,-1.051270,-0.022339,-34.301758,71.533203,40.222164
26536,0.151611,-1.054321,-0.021851,-23.803709,70.373535,37.536621
26553,0.135254,-1.023682,-0.018433,-22.216795,70.434570,37.475586
26570,0.106934,-0.993164,-0.037476,-15.930175,74.096680,36.132812
26586,0.113525,-1.024902,-0.057617,-12.451171,82.214348,42.053219
26603,0.171631,-1.028442,-0.092163,-15.502929,83.251945,47.119137
26620,0.228638,-0.934082,-0.101318,-18.005371,74.523926,51.147457
26636,0.232422,-0.898071,-0.097534,-4.943848,62.866207,46.691891
26653,0.206421,-0.902222,-0.078491,3.479004,61.218258,43.457027
26670,0.205444,-0.945068,-0.072510,9.460449,67.199707,37.963867
26686,0.224487,-0.939331,-0.079712,0.915527,73.425293,35.949707
26703,0.265381,-0.889526,-0.103638,-1.159668,73.242187,35.522461
26719,0.288208,-0.846069,-0.125977,8.483887,68.176270,30.517576
26736,0.294800,-0.858398,-0.132080,23.681639,62.316891,23.986814
26753,0.309204,-0.913818,-0.120972,24.963377,59.448238,23.498533
26769,0.311279,-0.930298,-0.111084,12.756347,55.358883,27.709959
26786,0.300659,-0.900391,-0.115845,-3.967285,56.762691,30.822752
26802,0.300903,-0.849487,-0.153809,-8.117676,58.410641,29.663084
26819,0.321533,-0.837524,-0.161743,-5.920410,57.067867,23.864744
26835,0.351929,-0.867310,-0.158081,-3.051758,52.612301,21.423338
26851,0.340942,-0.903931,-0.183472,-3.967285,42.480465,19.531250
26868,0.339233,-0.924561,-0.200562,-13.732909,38.635254,23.193357
26884,0.349854,-0.927612,-0.224121,-17.700195,38.940430,25.939939
26901,0.356567,-0.893677,-0.241577,-21.667479,40.100098,28.991697
26917,0.352783,-0.882080,-0.261841,-22.644041,42.602535,25.939939
26933,0.367798,-0.849609,-0.315674,-22.277830,43.029781,22.583006
26950,0.379150,-0.851562,-0.336060,-18.798828,38.146973,16.479492
26966,0.403320,-0.882935,-0.343506,-17.395020,32.470703,15.075683
26983,0.416626,-0.873413,-0.304932,-17.517090,17.211914,15.014647
26999,0.408447,-0.862427,-0.274170,-22.521971,3.173828,16.174316
27016,0.366699,-0.834839,-0.239014,-26.489256,0.305176,16.052246
27032,0.354492,-0.826050,-0.239014,-31.005857,5.126953,13.427733
27048,0.367920,-0.827637,-0.238037,-26.367186,13.305663,11.291503
27065,0.395874,-0.821899,-0.224731,-20.935057,13.610839,10.498046
27081,0.403931,-0.819580,-0.213867,-7.995605,6.286621,6.652832
27098,0.395508,-0.837158,-0.185059,0.793457,-0.793457,-0.671387
27114,0.382690,-0.878052,-0.161987,2.868652,-1.037598,-4.516602
27131,0.386963,-0.899048,-0.155396,4.272461,3.356933,-8.117676
27147,0.402588,-0.952026,-0.146362,3.723144,5.920410,-7.019042
27164,0.421631,-0.970581,-0.144043,-1.708984,8.422852,0.183105
27180,0.424316,-0.962036,-0.142456,-7.019042,6.042480,7.019042
27197,0.417603,-0.926514,-0.143066,-7.080078,4.272461,7.263183
27213,0.403442,-0.912109,-0.149048,-2.929687,2.502441,3.784179
27230,0.400391,-0.911987,-0.152222,2.319336,2.746582,0.061035
27246,0.398315,-0.911011,-0.145508,4.028320,2.258301,-1.342773
27263,0.391846,-0.899170,-0.144043,5.065917,-0.366211,-3.662109
27280,0.389404,-0.888794,-0.147827,5.920410,-3.784179,-7.263183
27297,0.391113,-0.879761,-0.149780,7.934570,-5.432128,-9.948730
27313,0.398071,-0.874023,-0.141357,12.573241,-9.826660,-14.831542
27330,0.399292,-0.851196,-0.140747,18.920898,-16.174316,-19.042969
27347,0.408813,-0.746948,-0.152344,27.160643,-19.897461,-24.169920
27364,0.416016,-0.613525,-0.148804,70.617676,-31.311033,-50.781246
27380,0.398560,-0.545654,-0.143921,147.644043,-42.175289,-101.501457
27397,0.307861,-0.587524,-0.070435,180.603012,-40.588375,-131.347656
27414,0.149536,-0.752075,-0.019775,237.060532,-16.479492,-197.265610
27431,0.080444,-0.796631,-0.074707,312.622070,32.043457,-267.211914
27447,-0.031006,-0.976440,-0.205322,385.070770,67.077637,-294.128418
27464,-0.172241,-2.066650,-0.635498,402.160614,161.254868,-253.662094
27481,-0.288818,-2.734253,-1.038086,17.211914,222.717270,12.573241
27497,-0.869995,-2.841675,-1.784058,-221.313461,221.130356,207.824692
27514,-1.202393,-2.266602,-2.052734,-503.234833,191.040024,522.277832
27531,-1.086182,-1.122437,-2.296021,-480.712860,90.637199,623.046875
27548,-0.345825,-0.711304,-1.830566,-481.872528,-3.601074,634.826660
27565,-0.216309,-0.251709,-1.286499,-549.926758,-191.772446,625.244141
27582,-0.211060,0.052490,-1.159546,-511.413544,-353.027313,587.341309
27598,-0.352783,0.743408,-0.878906,-468.322723,-429.870575,573.120117
27615,-0.550537,1.925049,-0.269775,-401.000946,-515.014648,502.624481
27632,-0.304810,2.411743,0.064453,-313.537598,-448.486298,247.924789
27649,0.143799,2.713745,0.657104,-226.257309,-412.536591,88.195793
27666,-0.063599,2.289429,1.158447,-73.425293,-415.344208,-190.002426
27683,-0.280273,1.809448,1.404297,-26.794432,-440.063446,-377.319305
27699,-0.704712,0.719116,1.898682,-20.996092,-419.433563,-455.383270
27716,-0.935547,-0.334473,1.369385,45.593258,-323.059052,-594.848633
27733,-1.071411,-0.862061,1.119995,129.333496,-284.118652,-630.371094
27750,-0.653564,-1.901489,0.886108,137.939453,-246.643051,-568.847656
27767,-0.878540,-1.202271,0.873047,126.464836,-183.532700,-307.189941
27784,-0.751587,-1.879150,0.662598,132.995605,-187.316879,-31.982420
27801,-1.119141,-2.136963,0.684082,146.179199,-183.776840,123.107903
27818,-0.670288,-1.414551,0.306274,170.959457,-163.024887,245.117172
27835,-0.473022,-1.258179,0.501831,233.886703,-239.135727,295.959473
27851,-0.387329,-1.035156,0.862671,284.301758,-246.643051,345.703094
27869,-0.562378,-1.293823,0.528809,391.784637,-234.252914,480.041473
27885,-0.720093,-1.428955,0.461914,465.820282,-249.938950,583.251953
27902,-0.879150,-1.399902,0.953735,474.975555,-239.685043,599.182129
27919,-0.311401,-0.995239,1.051147,528.564453,-120.605461,535.705566
27936,-0.113525,-1.057495,0.928833,559.753418,53.955074,429.565399
27953,-0.095337,-0.997925,0.737061,518.005371,134.094238,376.769989
27969,0.044312,-0.632446,0.384155,343.444794,254.028305,272.521973
27986,0.159790,-0.502930,0.239868,137.756348,291.809082,181.335434
28002,0.275635,-0.285400,-0.026001,73.120117,294.860840,142.395020
28019,0.343872,-0.360596,-0.427490,15.808105,289.978027,85.571281
28035,0.373413,-0.446655,-0.553833,8.972168,259.521484,49.499508
28052,0.318359,-0.585815,-0.596191,15.624999,243.286118,33.203125
28069,0.336792,-0.765869,-0.792725,22.033689,211.364731,11.962890
28086,0.363892,-0.842041,-0.889648,-55.847164,125.610344,24.597166
28102,0.289795,-0.722534,-0.857788,-93.994133,74.279785,28.137205
28119,0.239014,-0.691162,-0.750854,-99.975578,3.784179,13.732909
28136,0.224976,-0.742676,-0.693237,-54.687496,-20.874022,-2.441406
28153,0.231079,-0.761353,-0.547974,-29.724119,-20.324705,-6.591796
28169,0.276611,-0.793213,-0.469727,8.789063,-7.507324,-15.197753
28186,0.298950,-0.832031,-0.483521,21.362303,-0.366211,-23.803709
28203,0.308228,-0.869751,-0.472534,14.465331,-2.624511,-24.597166
28219,0.312012,-0.866943,-0.457275,0.122070,-0.061035,-19.775391
28236,0.322021,-0.865479,-0.466187,-5.249023,11.291503,-9.887695
28253,0.338867,-0.859253,-0.483032,-6.530761,13.427733,-6.347656
28270,0.335327,-0.834229,-0.499512,-8.178711,8.666992,-4.882812
28286,0.321411,-0.828857,-0.502075,-7.690429,1.159668,-3.601074
28303,0.292603,-0.810669,-0.510742,-6.469726,0.183105,-3.356933
28319,0.287354,-0.802002,-0.510498,-2.685547,1.831055,-6.103515
28336,0.275513,-0.798218,-0.492920,2.258301,4.821777,-8.117676
28353,0.291870,-0.808838,-0.481201,2.319336,5.371093,-7.751464
28370,0.295776,-0.806885,-0.475952,-1.464844,2.624511,-7.934570
28386,0.285278,-0.780151,-0.457886,-2.685547,0.732422,-11.779784
28403,0.273438,-0.751343,-0.460815,-2.380371,1.403808,-14.709472
28420,0.271484,-0.746094,-0.467407,-4.211426,4.150391,-19.287109
28437,0.276489,-0.735474,-0.482910,-9.948730,4.699707,-21.362303
28454,0.288452,-0.723633,-0.476196,-12.756347,2.685547,-21.545408
28470,0.287842,-0.723145,-0.462891,-19.470215,-3.845215,-20.446775
28487,0.283813,-0.702515,-0.422607,-31.555174,-5.981445,-17.272949
28504,0.296021,-0.658569,-0.374146,-41.076656,-5.249023,-14.892577
28521,0.301025,-0.630737,-0.346558,-65.979004,-3.112793,-11.474608
28537,0.307007,-0.566650,-0.302734,-93.139641,-2.136230,-11.657714
28554,0.270874,-0.550537,-0.273926,-104.064934,-2.563476,-13.610839
28571,0.238770,-0.562256,-0.262329,-116.516106,-2.136230,-24.841307
28588,0.180420,-0.603882,-0.262207,-116.149895,-2.502441,-48.278805
28605,0.127563,-0.666382,-0.250488,-108.459465,-4.577637,-62.866207
28622,0.102173,-0.727661,-0.239502,-82.092278,-9.338379,-85.754387
28638,0.069458,-0.906250,-0.214355,-69.030762,-14.404296,-90.820305
28655,0.057617,-0.992920,-0.164551,-72.265625,-16.784668,-87.158195
28672,0.046875,-0.978516,-0.149658,-86.914055,-19.470215,-79.956055
28689,0.001099,-0.916016,-0.138306,-85.205070,-19.104004,-88.500969
28705,-0.063232,-0.906616,-0.119873,-74.523926,-17.639160,-96.923820
28722,-0.094482,-0.941650,-0.109131,-48.217770,-10.192870,-109.863274
28739,-0.127930,-1.007935,-0.086914,-34.301758,0.488281,-110.351555
28756,-0.140503,-1.025146,-0.066406,-32.653809,3.784179,-108.276360
28773,-0.171631,-1.029663,-0.073730,-37.109375,4.516602,-105.346672
28790,-0.195435,-1.032227,-0.065308,-42.541500,0.732422,-107.604973
28807,-0.228516,-1.078247,-0.025269,-43.701168,1.098633,-105.651848
28824,-0.246582,-1.106323,-0.010864,-51.879879,7.263183,-94.665520
28841,-0.260986,-1.116699,-0.015503,-59.692379,10.375976,-84.899895
28858,-0.277222,-1.140137,-0.018433,-59.082027,8.300781,-81.848137
28875,-0.292969,-1.184692,0.026733,-42.724606,1.953125,-79.956055
28892,-0.317749,-1.238403,0.045044,-24.841307,5.249023,-75.500488
28909,-0.350952,-1.304932,0.047485,-24.536131,10.681151,-68.969727
28926,-0.354736,-1.275879,0.015259,-31.677244,22.155760,-51.452633
28943,-0.347290,-1.229370,-0.008179,-26.306150,27.709959,-40.771481
28960,-0.327637,-1.160400,-0.048218,-15.991210,27.038572,-38.208008
28976,-0.326050,-1.176147,-0.057007,7.690429,20.874022,-33.020020
28993,-0.325439,-1.180542,-0.053833,14.038085,11.230468,-25.329588
29010,-0.327759,-1.173706,-0.042480,2.746582,3.112793,-14.038085
29027,-0.325073,-1.122681,-0.038696,-5.493164,1.342773,-7.629394
29044,-0.323242,-1.076050,-0.034668,-15.930175,-0.549316,0.732422
29061,-0.314941,-0.992432,-0.016724,-12.878417,-3.112793,0.305176
29078,-0.296143,-0.937622,0.017334,-8.239746,-4.455566,-2.441406
29094,-0.281372,-0.920898,0.042725,2.258301,-7.141113,-9.643555
29111,-0.256714,-0.893433,0.114990,10.925292,-8.911133,-17.944336
29127,-0.254883,-0.844604,0.216064,15.624999,-7.446289,-24.108885
29144,-0.291504,-0.850220,0.279053,25.878904,12.756347,-42.968746
29160,-0.478394,-0.895508,0.270264,25.756834,41.748043,-53.894039
29177,-0.595703,-0.645874,0.232788,18.249512,125.549309,-106.689445
29193,-0.635620,-0.446899,0.321655,187.683090,210.205063,-250.244125
29210,-0.808105,-0.567993,0.146118,306.335449,249.450668,-320.739746
29226,-1.036255,-1.163086,-0.255859,336.425751,311.157227,-340.332001
29243,-1.086304,-1.408325,-0.654907,180.236801,322.936981,-189.086899
29259,-1.104614,-1.979248,-1.434937,95.764153,280.029297,-62.377926
29276,-1.128906,-2.023682,-1.530762,-115.234367,105.285637,252.136215
29293,-1.389526,-1.568848,-1.309814,-414.977997,-55.541988,554.321289
29309,-1.733521,-0.949707,-1.136597,-553.710938,-96.130363,665.771423
29326,-1.680176,-0.720703,-1.141724,-728.393494,-147.949219,789.733826
29343,-1.230835,-0.158203,-0.939453,-800.414978,-254.821762,823.852478
29360,-1.102905,0.688843,-0.428711,-801.330505,-311.584473,818.359314
29377,-1.148071,1.707642,-0.130493,-858.581482,-368.102997,724.731384
29394,-0.899048,2.164917,-0.268433,-965.942322,-309.020996,471.679657
29411,-0.039063,3.277344,-0.373657,-857.604919,-298.950195,287.719727
29428,-0.085327,3.402954,0.692017,-245.056137,-404.113739,-125.305168
29445,-0.349487,2.820068,0.954712,222.656235,-464.233368,-392.272919
29461,-1.189331,0.843506,0.901855,288.085937,-470.764130,-468.872040
29478,-1.606445,-0.766235,1.175903,183.837875,-477.355927,-509.826630
29495,-1.366089,-0.828003,0.924194,21.057127,-421.264618,-413.635223
29512,-0.826050,-1.489868,0.414429,-41.198727,-434.082001,-280.578613
29529,-1.805420,-0.834961,0.473389,-41.992184,-408.142059,100.646965
29545,-1.891724,-0.476929,0.310059,166.259750,-343.322723,216.491684
29562,-1.477905,-0.866943,0.584351,271.118164,-360.900848,256.713867
29579,-1.437744,-0.997192,0.817749,375.793427,-357.482880,422.424286
29596,-1.514648,-0.980713,0.719604,430.969208,-320.495605,572.631836
29612,-1.671265,-1.175049,0.795898,404.785126,-292.602539,615.539551
29629,-1.512329,-0.871338,0.857300,342.651337,-183.532700,631.103516
29646,-1.307861,-0.660522,0.898437,416.137665,-22.521971,548.706055
29662,-1.051880,-0.497925,1.009888,451.477020,75.378418,492.980927
29679,-0.926880,-0.469727,0.752808,504.028290,269.714355,361.633270
29696,-0.891724,-0.570068,0.490967,409.179657,365.417450,254.150375
29712,-0.705811,-0.558105,0.259521,309.753418,369.201630,216.857895
29729,-0.618164,-0.399902,0.254028,119.140617,366.516083,141.479492
29746,-0.535034,-0.272217,-0.004395,7.934570,371.276825,73.547363
29762,-0.442383,-0.474487,-0.260376,-17.272949,358.520477,59.204098
29779,-0.440063,-0.504272,-0.272583,-20.019531,323.974579,48.217770
29796,-0.513062,-0.474609,-0.326538,10.131835,301.879883,10.925292
29813,-0.497925,-0.598755,-0.543579,30.700682,279.785156,-9.948730
29830,-0.473999,-0.726318,-0.574463,26.123045,192.504868,-31.799314
29846,-0.452026,-0.952026,-0.485352,-11.535644,95.397942,-44.128414
29863,-0.457031,-1.177490,-0.364746,-32.287598,54.931637,-42.053219
29880,-0.476318,-1.224121,-0.321411,-66.589355,-6.347656,-20.690916
29897,-0.506714,-1.175049,-0.204102,-80.444328,-42.907711,8.728027
29914,-0.520508,-1.104248,-0.089355,-79.101562,-51.147457,20.019531
29931,-0.487549,-1.046143,-0.019043,-68.908691,-54.260250,34.851074
29948,-0.465210,-1.007324,0.009766,-53.771969,-51.757809,35.644531
29965,-0.415771,-0.940918,0.067993,-43.945309,-50.048824,31.066893
29981,-0.375000,-0.908569,0.106323,-21.545408,-43.701168,18.127441
29998,-0.360840,-0.897827,0.115356,-4.577637,-33.569336,9.155273
30015,-0.355469,-0.898071,0.131958,0.366211,-28.015135,6.103515
30032,-0.368774,-0.884766,0.125732,6.896972,-16.479492,1.098633
30048,-0.372314,-0.885864,0.128418,13.610839,-6.713867,1.647949
30065,-0.404907,-0.912842,0.124146,17.333984,-2.014160,1.708984
30082,-0.416504,-0.899780,0.100342,17.578125,7.629394,0.549316
30099,-0.415649,-0.886230,0.087280,13.244628,15.808105,-0.793457
30115,-0.414185,-0.860718,0.062134,11.779784,18.188477,-2.197266
30132,-0.413940,-0.849854,0.054321,13.427733,19.531250,-5.737304
30148,-0.408936,-0.852539,0.041382,18.981934,17.822266,-7.263183
30165,-0.408813,-0.863281,0.032104,21.484373,15.747069,-7.934570
30182,-0.415771,-0.866333,0.029785,22.521971,11.657714,-10.559081
30198,-0.437988,-0.875732,0.021729,19.348145,9.948730,-14.038085
30215,-0.451904,-0.906128,-0.004761,15.380858,10.070800,-14.526366
30232,-0.444092,-0.908813,-0.028931,3.234863,11.901855,-11.230468
30249,-0.431274,-0.880737,-0.101929,-5.065917,10.070800,-7.751464
30266,-0.432495,-0.867798,-0.164673,-5.493164,4.272461,-7.019042
30283,-0.444092,-0.870483,-0.177490,-2.014160,-11.535644,-7.202148
30300,-0.465698,-0.875000,-0.171997,-1.342773,-21.606443,-6.286621
30317,-0.474854,-0.888916,-0.146484,-3.540039,-24.108885,-4.821777
30334,-0.477417,-0.890381,-0.127075,-11.596679,-27.832029,-1.647949
30351,-0.469360,-0.889648,-0.116821,-19.104004,-32.531738,2.624511
30368,-0.453003,-0.874878,-0.094849,-21.667479,-35.461426,5.126953
30385,-0.452515,-0.869385,-0.073486,-23.071287,-42.297359,8.972168
30402,-0.457886,-0.869751,-0.059082,-21.179197,-47.546383,10.681151
30419,-0.462524,-0.855835,-0.034790,-20.507811,-47.607418,10.620116
30436,-0.454346,-0.867432,-0.028442,-22.094725,-44.738766,9.033203
30453,-0.446411,-0.873047,-0.024536,-28.320311,-44.860836,7.019042
30469,-0.428101,-0.867065,-0.004272,-30.883787,-47.424313,5.920410
30486,-0.438843,-0.872925,0.022583,-31.066893,-54.504391,4.089355
30503,-0.449463,-0.868408,0.030762,-29.968260,-55.175777,3.723144
30520,-0.469238,-0.847656,0.030640,-29.541014,-52.368160,3.845215
30536,-0.480225,-0.831177,0.010376,-28.503416,-43.395992,2.319336
30553,-0.476685,-0.829712,-0.002075,-26.977537,-37.536621,-2.319336
30570,-0.453613,-0.844727,-0.009888,-26.245115,-38.391113,-4.943848
30587,-0.439453,-0.871216,0.003052,-27.404783,-47.851559,-7.446289
30604,-0.440430,-0.877197,0.016113,-32.958984,-59.020992,-4.821777
30621,-0.455566,-0.862915,0.037476,-36.193848,-61.950680,-3.417969
30637,-0.468994,-0.838867,0.054199,-39.611816,-62.194820,-2.746582
30654,-0.465820,-0.831055,0.066528,-37.536621,-60.302731,-5.981445
30671,-0.464600,-0.818604,0.080322,-34.667969,-59.631344,-8.483887
30688,-0.460693,-0.829468,0.089844,-28.381346,-58.288570,-13.366698
