timestamp,ax,ay,az,gx,gy,gz
0,-0.020996,-0.158813,1.265137,13.244628,74.768066,-26.855467
17,-0.043213,-0.255859,1.333984,52.551266,94.177238,-35.644531
34,-0.011353,-0.307861,1.363525,80.810539,92.285149,-36.560059
51,-0.020142,-0.352173,1.4104,100.097649,93.139641,-30.151365
68,-0.021851,-0.394165,1.390991,107.482903,97.839348,-26.794432
85,-0.009399,-0.425781,1.338135,106.262199,110.41259,-20.751951
102,0.064209,-0.437866,1.190796,83.862297,116.516106,-9.765625
119,0.137939,-0.38623,1.070557,67.993164,111.938469,-1.220703
136,0.223267,-0.336426,1.005127,41.320797,94.055168,17.333984
153,0.269043,-0.319946,1.002686,31.005857,81.603996,23.315428
170,0.306396,-0.28186,0.970581,32.836914,79.284668,20.080564
189,0.32312,-0.278931,0.906372,51.269527,80.383293,12.390136
206,0.327515,-0.296997,0.859863,75.378418,85.815422,11.596679
223,0.35022,-0.371582,0.755737,77.453613,100.646965,17.76123
239,0.411987,-0.396973,0.661499,65.246582,108.093254,21.423338
256,0.466553,-0.363159,0.617065,41.687008,114.19677,26.18408
273,0.568359,-0.369751,0.545044,31.188963,110.961906,27.221678
289,0.603882,-0.408203,0.518311,27.893064,108.215324,27.709959
306,0.603149,-0.384521,0.500854,24.780272,105.712883,33.508301
323,0.621094,-0.340088,0.475586,25.573729,104.980461,40.52734
340,0.693848,-0.321167,0.429199,27.709959,106.262199,42.297359
357,0.712769,-0.307251,0.396851,22.888182,114.135735,41.137691
374,0.723022,-0.283691,0.334595,10.437011,115.844719,32.043457
391,0.758057,-0.275269,0.311279,8.911133,110.107414,23.925779
408,0.76709,-0.28125,0.281494,13.671874,96.67968,7.8125
425,0.771851,-0.289429,0.257813,16.235352,92.590324,1.464844
442,0.792603,-0.288208,0.214111,13.061522,91.918938,1.220703
459,0.82373,-0.291382,0.196167,8.605957,87.951653,0.488281
476,0.843018,-0.293091,0.192505,9.216309,77.697754,-1.342773
493,0.872803,-0.285767,0.178101,7.446289,71.350098,-1.953125
510,0.890625,-0.265137,0.169434,1.159668,57.495113,-3.845215
527,0.894165,-0.252075,0.163696,-5.92041,44.799801,-7.324218
544,0.903442,-0.234619,0.155151,-10.131835,39.367676,-9.521484
561,0.916626,-0.217041,0.149048,-13.671874,28.320311,-14.892577
578,0.917969,-0.232666,0.155273,-8.728027,19.65332,-20.080564
595,0.906006,-0.268799,0.158203,-7.080078,16.540527,-24.963377
613,0.924316,-0.300537,0.145142,-8.300781,17.272949,-26.672361
630,1.015137,-0.340454,0.129517,-10.742187,18.676758,-25.817869
647,1.074829,-0.35791,0.121582,-8.850098,13.732909,-18.188477
664,1.150635,-0.388672,0.126587,-6.530761,10.0708,-12.145995
681,1.104492,-0.380737,0.173218,-0.427246,-0.061035,2.075195
698,1.053223,-0.358398,0.196411,4.882812,-9.460449,14.282226
716,0.952393,-0.319336,0.260132,8.605957,-14.709472,20.996092
733,0.858276,-0.309692,0.313843,9.643555,-14.587401,21.423338
750,0.778198,-0.311646,0.341919,6.04248,-11.352538,15.136718
766,0.750366,-0.32019,0.351074,3.112793,-4.394531,4.638672
784,0.755249,-0.337891,0.353394,3.967285,0.12207,0.793457
801,0.812256,-0.355835,0.330444,7.8125,7.690429,-2.258301
819,0.852295,-0.360962,0.316528,13.916015,9.58252,-0.488281
837,0.948975,-0.361572,0.294556,20.935057,6.469726,4.943848
854,1.058838,-0.341797,0.296753,21.972654,3.051758,7.629394
871,1.083252,-0.321167,0.30127,22.338865,-5.92041,8.117676
888,1.057495,-0.317261,0.299805,21.972654,-7.507324,-1.525879
905,1.009521,-0.304199,0.289185,20.690916,-4.089355,-9.643555
923,1.005493,-0.308105,0.264038,19.775391,5.493164,-27.099607
940,1.010498,-0.332153,0.259277,28.686522,11.535644,-36.376953
957,1.017334,-0.42395,0.262817,44.921871,9.094238,-34.301758
973,0.994141,-0.531494,0.278931,42.66357,0.976562,-29.541014
990,0.958374,-0.569214,0.305664,20.080564,-23.071287,-12.634276
1007,0.872314,-0.554443,0.350952,-9.94873,-35.888672,7.873535
1025,0.793335,-0.459229,0.368164,-21.240232,-34.973145,15.441894
1041,0.760742,-0.417603,0.365234,-27.9541,-23.315428,22.888182
1057,0.708008,-0.371948,0.348389,-25.573729,-16.113281,23.010252
1074,0.683838,-0.358276,0.34082,-15.319823,-6.16455,16.601562
1090,0.68457,-0.359497,0.345093,-4.150391,-2.01416,5.554199
1107,0.691772,-0.371216,0.353638,0.0,0.244141,0.488281
1123,0.672974,-0.394897,0.345825,0.610352,6.896972,-7.93457
1140,0.664185,-0.406738,0.341309,-3.967285,12.573241,-16.967773
1156,0.670654,-0.410645,0.336304,-6.103515,14.038085,-21.545408
1173,0.69458,-0.428589,0.324341,-5.310058,15.319823,-28.564451
1190,0.705322,-0.438599,0.316895,0.427246,16.296387,-32.287598
1206,0.724976,-0.456543,0.301147,3.540039,17.700195,-32.958984
1223,0.747437,-0.480835,0.286621,9.094238,19.592285,-31.616209
1240,0.755127,-0.48999,0.281372,13.549804,18.432617,-27.648924
1257,0.76355,-0.504761,0.265503,13.488769,17.76123,-25.634764
1273,0.785034,-0.512817,0.263916,11.474608,15.930175,-21.179197
1290,0.798584,-0.516357,0.267822,9.460449,11.96289,-13.85498
1306,0.821655,-0.517822,0.270874,6.469726,9.643555,-9.765625
1322,0.833252,-0.511963,0.270752,-1.708984,5.310058,-2.258301
1339,0.876953,-0.483032,0.270264,-5.065917,3.234863,1.220703
1355,0.932495,-0.447144,0.27417,-7.995605,-1.89209,6.04248
1372,0.953125,-0.436279,0.277344,-6.713867,-7.751464,6.652832
1389,0.972168,-0.431641,0.289917,-6.286621,-10.131835,5.615234
1406,0.966797,-0.459595,0.307983,-7.93457,-12.268065,2.258301
1424,0.962036,-0.477661,0.314819,-15.441894,-9.643555,0.12207
1441,0.95105,-0.494263,0.318848,-25.085447,-5.859375,0.061035
1459,0.942627,-0.486084,0.325317,-27.465818,-5.371093,0.549316
1476,0.926514,-0.471802,0.335327,-26.123045,-6.16455,1.770019
1492,0.91687,-0.477417,0.331909,-21.850584,-4.455566,0.610352
1509,0.899414,-0.489624,0.312622,-20.935057,-2.075195,0.061035
1526,0.88269,-0.48999,0.300049,-19.165039,3.295898,1.770019
1543,0.871826,-0.488037,0.295044,-16.235352,6.896972,5.981445
1561,0.849121,-0.471313,0.285034,-14.770507,8.422852,8.300781
1577,0.841797,-0.443848,0.269165,-12.023925,11.230468,11.291503
1594,0.842407,-0.42688,0.259399,-7.385253,12.20703,12.329101
1611,0.8479,-0.404907,0.244507,-3.601074,11.779784,12.451171
1628,0.855835,-0.406006,0.238159,4.821777,10.19287,10.559081
1645,0.858765,-0.408203,0.23938,12.20703,8.300781,8.666992
1662,0.861694,-0.419556,0.250732,15.258788,3.845215,8.483887
1680,0.856689,-0.442139,0.27417,14.648437,0.976562,8.666992
1697,0.846802,-0.441772,0.29187,8.178711,-2.746582,10.009766
1714,0.846802,-0.423096,0.295288,1.831055,-3.662109,12.695312
1731,0.856689,-0.373291,0.298706,1.770019,-4.089355,13.610839
1748,0.87207,-0.346802,0.30542,7.568359,-5.859375,13.244628
1765,0.875977,-0.344482,0.307983,13.366698,-8.056641,11.474608
1783,0.876099,-0.348022,0.312744,13.000487,-9.70459,9.765625
1800,0.876953,-0.344727,0.320313,10.742187,-10.131835,9.216309
1817,0.880981,-0.335815,0.333496,5.126953,-10.31494,7.568359
1835,0.882446,-0.332275,0.34314,1.586914,-10.19287,4.882812
1852,0.884521,-0.324585,0.357178,0.549316,-9.643555,3.295898
1869,0.872437,-0.342651,0.356445,-1.647949,-6.469726,-0.488281
1887,0.868774,-0.35437,0.35083,-3.479004,-0.915527,-4.089355
1904,0.869385,-0.362305,0.342285,-4.882812,2.746582,-5.065917
1922,0.871338,-0.369873,0.338989,-4.638672,3.173828,-5.615234
1939,0.867798,-0.391724,0.331787,-5.249023,2.990722,-7.690429
1956,0.866089,-0.401489,0.330444,-6.713867,2.868652,-9.460449
1973,0.860107,-0.419312,0.328857,-7.019042,3.173828,-9.70459
1990,0.8573,-0.432617,0.325073,-7.507324,3.723144,-9.338379
2006,0.857056,-0.435669,0.321777,-6.469726,3.051758,-9.399414
2023,0.853271,-0.448364,0.317383,-5.615234,2.13623,-9.58252
2039,0.848755,-0.4552,0.31604,-3.662109,0.305176,-8.911133
2056,0.847534,-0.450439,0.322998,-0.610352,-0.976562,-6.103515
2072,0.851562,-0.437012,0.340454,2.01416,-1.159668,-5.249023
2089,0.862671,-0.442139,0.335205,4.638672,0.12207,-5.92041
2105,0.865479,-0.447876,0.327026,2.01416,2.685547,-6.286621
2121,0.862305,-0.452515,0.312622,0.244141,3.845215,-5.676269
2137,0.862183,-0.449219,0.307983,-0.244141,4.699707,-3.90625
2154,0.86853,-0.43457,0.300171,0.976562,4.516602,-3.112793
2171,0.871582,-0.425171,0.293945,3.845215,3.173828,-2.441406
2187,0.869507,-0.425415,0.289673,4.882812,1.525879,-3.173828
2203,0.862061,-0.43811,0.280273,4.882812,1.037598,-3.356933
2220,0.861694,-0.437012,0.272339,3.967285,0.610352,-2.01416
2236,0.862427,-0.432739,0.269897,2.380371,-0.549316,-0.671387
2253,0.864502,-0.435425,0.280029,2.258301,-1.708984,-0.793457
2269,0.862549,-0.434692,0.2854,0.610352,-3.479004,-1.342773
2286,0.851807,-0.436768,0.291504,-0.732422,-3.234863,-1.708984
2302,0.854858,-0.435791,0.299561,-0.732422,-1.586914,-2.197266
2319,0.861938,-0.429565,0.302124,-1.89209,-1.464844,-2.868652
2335,0.869873,-0.444824,0.317017,-3.112793,-1.586914,-3.845215
2352,0.890503,-0.457275,0.331909,-5.004883,-0.244141,-5.371093
2368,0.896729,-0.455444,0.343628,-16.174316,5.493164,-7.324218
2384,0.905396,-0.4823,0.359741,-15.808105,12.329101,-8.056641
2401,0.960083,-0.560791,0.353271,-8.483887,32.104492,-5.859375
2417,1.023682,-0.592285,0.330688,-17.089844,57.312008,2.624511
2433,1.156982,-0.625488,0.222534,-29.541014,66.467285,7.751464
2450,1.205811,-0.624878,0.193237,-59.631344,70.495605,20.812986
2466,1.246094,-0.53772,0.203491,-80.749504,66.40625,31.005857
2483,1.177124,-0.365479,0.24585,-110.717766,62.255856,48.583981
2500,1.146606,-0.308228,0.282837,-99.792473,72.021484,49.072262
2516,1.102539,-0.278442,0.326904,-87.890617,78.796387,45.349117
2533,1.019531,-0.259888,0.275635,-74.462891,92.468254,35.644531
2549,0.978394,-0.253174,0.236694,-62.011715,103.759758,22.705076
2566,0.943115,-0.285645,0.148926,-60.424801,106.689445,15.99121
2583,0.918335,-0.305908,0.098267,-69.519043,102.355949,7.8125
2599,0.891479,-0.31189,0.077148,-80.383293,88.928215,6.04248
2615,0.854248,-0.282227,0.063721,-83.801262,82.519524,6.591796
2632,0.849243,-0.259399,0.071411,-88.195793,74.523926,8.850098
2648,0.834961,-0.232178,0.031616,-94.726555,66.223145,11.901855
2665,0.785156,-0.198853,-0.028076,-96.374504,61.584469,11.352538
2682,0.762817,-0.182007,-0.064575,-96.55761,50.048824,3.845215
2699,0.751587,-0.180786,-0.162476,-92.8955,20.26367,-2.01416
2716,0.750732,-0.266724,-0.356445,-94.299309,-9.58252,-3.417969
2733,0.747925,-0.293579,-0.412109,-98.022453,-108.581535,-6.835937
2750,0.751343,-0.382202,-0.401489,-100.158684,-254.394516,-9.094238
2766,0.69043,-0.402954,-0.164551,-99.731438,-341.186493,-1.159668
2783,0.560181,-0.325562,-0.019775,-69.641113,-508.789032,24.841307
2800,0.131592,-0.130737,0.209595,-11.413573,-650.451599,20.751951
2816,0.061768,-0.248291,0.137451,13.671874,-703.124939,17.51709
2833,0.002075,-0.386597,0.074707,62.561031,-782.592712,84.472649
2850,-0.554565,-0.566406,0.309326,42.480465,-804.748474,205.07811
2866,-1.216431,-0.86145,0.745239,9.155273,-794.677673,268.676758
2883,-1.527466,-1.03833,0.965454,-84.716789,-741.088806,434.448212
2900,-1.962402,-0.563354,1.615234,-18.859863,-589.538574,540.100098
2917,-1.720825,-0.239624,2.624756,79.467773,-432.617157,533.02002
2933,-1.62439,-0.314819,2.637695,168.15184,-12.023925,529.785156
2950,-1.244629,0.180542,1.970215,190.734848,177.795395,533.508301
2967,-0.65271,0.129761,1.397583,272.644043,444.763153,509.582489
2983,-0.441528,0.07605,1.177124,318.725586,602.233887,479.248016
3000,-0.279053,0.112305,0.73291,303.955078,653.808533,453.613251
3016,-0.192627,0.141968,0.440552,207.763657,717.468201,363.220184
3033,-0.096802,0.126831,0.275269,51.635738,706.726013,227.905258
3049,0.369507,0.185303,-0.106934,-46.081539,649.597107,140.808105
3066,0.818604,0.079956,-0.369385,-168.457016,390.441864,-62.07275
3082,0.797363,-0.077148,-0.29834,-167.114243,86.242668,-218.994125
3099,0.513184,-0.313721,-0.151367,-164.367661,-10.498046,-268.615723
3116,0.249146,-0.804565,-0.087646,-207.275375,-101.257317,-354.492157
3133,0.282104,-1.189453,0.063965,-291.137695,-120.483391,-399.963348
3150,0.343872,-1.684082,0.530151,-346.374481,-87.036125,-387.573212
3166,0.007568,-1.60791,0.71582,-428.894012,64.147949,-340.332001
3183,-0.137817,-1.454712,0.756348,-433.166473,207.641586,-312.866211
3200,-0.068604,-1.093506,0.794922,-398.864716,251.525864,-292.84668
3217,0.118042,-0.849609,0.938354,-259.399414,306.82373,-221.313461
3234,0.157959,-0.81543,0.91272,-111.206047,368.286102,-146.484375
3250,0.193848,-0.859375,0.788452,-48.156734,403.137177,-117.004387
3267,0.178345,-0.985718,0.557129,52.429195,496.154755,-78.125
3283,0.193237,-1.081543,0.343994,98.144524,563.903809,-49.560543
3300,0.401367,-1.088867,-0.098511,93.505852,560.668945,-36.437988
3316,0.5625,-0.981812,-0.231812,76.416016,485.168427,-12.512206
3333,0.732056,-0.933716,-0.357788,84.655754,377.441376,11.108397
3350,0.750244,-0.989258,-0.430664,100.83007,325.683563,24.902342
3367,0.749146,-0.96167,-0.495605,102.172844,230.468735,50.292965
3384,0.734619,-0.759155,-0.574707,80.078125,140.869141,60.241695
3400,0.713257,-0.609619,-0.591797,75.805664,99.853508,59.082027
3417,0.69165,-0.504395,-0.495117,83.618156,30.700682,48.278805
3434,0.670044,-0.472412,-0.452148,97.900383,-5.737304,32.897949
3451,0.635498,-0.512085,-0.394775,96.252434,-14.648437,28.503416
3467,0.624756,-0.533081,-0.350098,89.11132,-20.996092,28.747557
3484,0.626221,-0.55127,-0.290161,82.092278,-19.40918,30.578611
3500,0.650757,-0.526123,-0.284912,59.020992,-14.09912,32.897949
3517,0.664795,-0.522095,-0.293945,37.597656,-12.451171,30.151365
3533,0.698364,-0.51001,-0.299805,29.418943,-13.732909,25.634764
3549,0.73877,-0.497314,-0.302734,19.042969,-19.714355,12.20703
3566,0.755371,-0.510986,-0.308472,9.155273,-28.686522,-0.854492
3583,0.779541,-0.540527,-0.314941,4.638672,-33.630371,-5.371093
3599,0.783203,-0.553345,-0.307495,1.708984,-42.480465,-12.145995
3616,0.7854,-0.563599,-0.296265,7.995605,-45.227047,-17.456055
3632,0.807617,-0.594849,-0.266235,10.803222,-44.006344,-18.676758
3649,0.817139,-0.609985,-0.248291,13.244628,-39.18457,-17.883301
3665,0.821289,-0.645508,-0.21936,11.474608,-31.005857,-13.916015
3682,0.812134,-0.672485,-0.206665,7.141113,-26.000975,-11.352538
3699,0.815186,-0.674194,-0.203979,-1.464844,-18.310547,-6.835937
3716,0.836914,-0.661987,-0.197388,-2.929687,-18.066406,-2.380371
3733,0.829468,-0.655029,-0.190796,-2.258301,-20.080564,-0.488281
3750,0.8125,-0.64978,-0.187378,-1.89209,-24.536131,1.220703
3766,0.780762,-0.636963,-0.174927,-1.647949,-25.329588,4.02832
3783,0.75769,-0.619629,-0.165771,-1.89209,-24.230955,6.469726
3800,0.741943,-0.593384,-0.171265,-1.708984,-20.202635,8.300781
3817,0.743164,-0.585571,-0.17627,1.89209,-15.075683,4.882812
3834,0.755859,-0.595215,-0.183838,4.516602,-13.427733,2.868652
3850,0.772461,-0.61731,-0.182007,7.080078,-13.305663,0.549316
3867,0.778076,-0.622314,-0.178711,2.197266,-16.113281,2.13623
3884,0.776245,-0.609009,-0.170776,-1.220703,-17.63916,3.601074
3900,0.77417,-0.596436,-0.166138,-3.112793,-19.592285,3.967285
3917,0.782593,-0.585205,-0.157349,0.488281,-20.324705,0.183105
3934,0.793091,-0.583984,-0.147217,2.624511,-20.874022,-2.13623
3951,0.790283,-0.59021,-0.142456,4.211426,-21.301268,-6.347656
3968,0.776001,-0.605103,-0.127563,0.915527,-18.798828,-11.352538
3985,0.779907,-0.621704,-0.112183,-0.12207,-16.174316,-13.000487
4002,0.788574,-0.641113,-0.116089,0.610352,-11.108397,-11.535644
4019,0.78894,-0.641479,-0.121948,3.356933,-10.986327,-8.728027
4036,0.784302,-0.645264,-0.128662,5.187988,-12.390136,-8.178711
4052,0.77832,-0.666626,-0.12915,6.286621,-15.502929,-6.713867
4069,0.776123,-0.67041,-0.129028,0.061035,-17.822266,-3.601074
4086,0.776611,-0.663086,-0.135254,-4.211426,-19.226074,-1.953125
4103,0.784302,-0.649902,-0.13562,-10.253905,-23.803709,0.0
4120,0.789185,-0.647705,-0.131714,-11.657714,-30.456541,0.793457
4136,0.797974,-0.657593,-0.121094,-10.925292,-34.362793,0.610352
4153,0.802856,-0.679687,-0.112061,-9.460449,-43.457027,-0.915527
4170,0.800659,-0.691284,-0.106201,-11.047362,-49.011227,-0.366211
4187,0.780762,-0.718872,-0.059814,-14.953612,-46.936031,0.549316
4204,0.711548,-0.754639,-0.001587,-34.240723,-22.583006,-2.807617
4221,0.667114,-0.764404,-0.02063,-55.603024,28.991697,-19.53125
4238,0.706787,-0.74646,-0.059326,-57.861324,56.15234,-33.630371
4255,0.905029,-0.793701,0.064819,-36.92627,99.426262,-52.429195
4271,0.974121,-0.864258,0.105469,-5.798339,136.59668,-26.977537
4288,0.997925,-0.949463,-0.005981,-4.455566,147.094727,-2.13623
4305,0.898682,-0.792725,-0.185059,-42.480465,147.521973,42.175289
4321,0.857178,-0.709717,-0.241455,-62.805172,142.700195,56.823727
4338,0.783325,-0.65686,-0.312012,-56.213375,141.113281,54.992672
4355,0.769897,-0.638794,-0.348877,-31.311033,135.742187,49.133297
4372,0.744019,-0.641113,-0.396851,-32.104492,120.910637,54.504391
4388,0.666016,-0.614746,-0.460693,-34.240723,111.450188,60.546871
4405,0.603638,-0.566406,-0.537231,-33.02002,96.069328,75.195312
4422,0.578247,-0.559326,-0.598511,-36.621094,71.960449,94.970695
4439,0.547729,-0.503784,-0.689697,-39.123535,51.635738,106.262199
4456,0.547729,-0.460937,-0.767212,-41.503902,-8.300781,124.1455
4473,0.55542,-0.464355,-0.791016,-49.194332,-105.041496,137.084961
4490,0.596924,-0.424561,-0.766602,-51.635738,-171.325668,140.563965
4507,0.546387,-0.373047,-0.610107,-56.15234,-340.026825,128.234863
4523,0.435547,-0.26001,-0.469238,-56.457516,-526.855469,86.791985
4540,0.096802,-0.007202,-0.175049,-43.395992,-607.055664,61.828609
4557,-0.134766,0.018433,0.217651,34.240723,-739.074646,17.76123
4574,-0.191162,-0.067383,0.389282,38.696289,-820.67865,-30.151365
4591,0.024536,-0.328125,0.404053,38.818359,-834.655701,-32.409668
4608,-0.279907,-0.619751,0.236816,122.436516,-818.969666,76.416016
4625,-0.721069,-0.802002,0.40686,147.644043,-789.733826,223.266586
4642,-1.371216,-1.442871,0.965088,89.538567,-707.763611,374.999969
4659,-1.724365,-1.66272,1.575195,68.664551,-633.300781,455.932587
4675,-1.710815,-1.488403,1.727051,29.357908,-421.142548,558.410645
4693,-1.229614,-0.83313,1.855347,30.273436,-194.152817,558.105469
4710,-0.670532,-0.301758,2.053101,66.162109,-74.829102,539.672852
4727,-0.394653,-0.216309,1.773315,166.13768,180.419907,501.647919
4744,-0.303345,-0.197266,1.532959,222.106918,391.418427,466.552704
4761,-0.057373,-0.089233,1.28064,237.915024,476.68454,434.082001
4778,-0.036133,-0.076782,1.030029,227.233871,622.741699,349.243134
4795,-0.102661,-0.09314,0.820801,94.055168,719.665466,247.985825
4812,0.041626,-0.072388,0.244141,-29.052732,722.412048,182.067856
4829,0.683838,0.10437,-0.215576,-316.101074,568.237305,17.76123
4846,0.877808,0.150146,-0.244873,-430.419891,278.259277,-142.76123
4862,0.776855,-0.011353,-0.300293,-404.052704,155.151367,-200.073227
4879,0.569702,-0.143921,-0.386597,-308.654785,0.671387,-289.245605
4896,0.418945,-0.329468,-0.414673,-273.010254,-105.651848,-385.436981
4913,0.184204,-1.086426,-0.014526,-252.07518,-150.20752,-425.720184
4930,0.011719,-1.785767,0.532959,-261.169434,-132.568359,-441.284149
4947,-0.145752,-1.760132,0.726929,-332.39743,22.766111,-372.009247
4964,-0.359741,-1.41626,0.832153,-325.500458,179.382309,-282.531738
4981,-0.024536,-1.166016,0.784302,-270.935059,222.83934,-232.299789
4997,0.224365,-1.132202,0.820312,-104.309074,267.456055,-134.887695
5014,0.502197,-1.235229,0.791138,-31.86035,297.607422,-76.23291
5031,0.480347,-1.341675,0.675293,-37.414551,312.133789,-61.340328
5047,0.44873,-1.3302,0.620483,-59.997555,348.632782,-40.40527
5064,0.388062,-1.1521,0.466064,-48.583981,369.3237,-27.587889
5080,0.357422,-0.970215,0.19397,34.423828,392.089813,7.385253
5097,0.367554,-0.911377,0.074341,104.797356,367.980927,42.41943
5113,0.426758,-0.828613,-0.052002,110.473625,342.956512,53.955074
5130,0.444214,-0.691772,-0.083496,97.778313,286.193848,66.101074
5147,0.461792,-0.64917,-0.109985,85.571281,235.412582,63.232418
5163,0.506226,-0.675293,-0.198853,76.721191,209.777817,60.668941
5180,0.579712,-0.666138,-0.259155,72.265625,154.11377,58.898922
5197,0.604736,-0.650146,-0.276367,68.847656,102.111809,59.326168
5214,0.612793,-0.627075,-0.292969,69.763184,81.115715,59.93652
5230,0.628418,-0.567749,-0.296021,66.833496,49.987789,58.654781
5247,0.639038,-0.537964,-0.288452,64.51416,31.738279,53.527828
5263,0.680298,-0.505615,-0.29834,61.706539,26.30615,50.170895
5280,0.705322,-0.503296,-0.312622,43.823238,14.343261,40.771481
5296,0.749146,-0.481323,-0.29834,37.353516,1.831055,27.465818
5313,0.770264,-0.485962,-0.293091,36.743164,-3.784179,19.104004
5330,0.775757,-0.505615,-0.286133,32.836914,-14.09912,3.173828
5347,0.79895,-0.553223,-0.275635,17.150879,-21.972654,-7.019042
5364,0.815918,-0.588379,-0.271362,8.361816,-27.221678,-11.596679
5380,0.822144,-0.606323,-0.25293,2.990722,-41.015621,-19.592285
5397,0.815552,-0.652588,-0.203491,7.507324,-50.23193,-19.226074
5414,0.787231,-0.696167,-0.148437,9.82666,-52.612301,-17.39502
5431,0.771362,-0.727051,-0.116333,9.887695,-50.964352,-11.413573
5447,0.749756,-0.734375,-0.074097,0.061035,-41.015621,-2.868652
5464,0.732178,-0.705444,-0.052612,-2.990722,-35.03418,0.061035
5481,0.733887,-0.69397,-0.052124,-5.249023,-23.559568,1.831055
5498,0.738159,-0.677979,-0.058594,2.502441,-17.63916,-1.159668
5515,0.748657,-0.678711,-0.062134,7.690429,-15.808105,-2.746582
5531,0.749268,-0.687378,-0.066772,11.840819,-12.695312,-2.624511
5548,0.740479,-0.710205,-0.075806,7.8125,-9.460449,1.403808
5564,0.740112,-0.696899,-0.093384,2.990722,-7.263183,4.577637
5581,0.747559,-0.669922,-0.104736,-3.967285,-4.699707,9.033203
5598,0.764038,-0.624634,-0.120728,-2.807617,-5.126953,9.094238
5614,0.768433,-0.619629,-0.124512,4.943848,-8.239746,6.958007
5631,0.769165,-0.621216,-0.123169,7.324218,-10.803222,4.394531
5647,0.772705,-0.624512,-0.115723,6.347656,-11.779784,3.479004
5664,0.779419,-0.62561,-0.102905,3.356933,-14.09912,3.051758
5681,0.784424,-0.62207,-0.094727,1.525879,-15.319823,3.90625
5697,0.783325,-0.617798,-0.077515,0.915527,-15.258788,3.784179
5714,0.779663,-0.620483,-0.063843,-1.586914,-13.488769,1.037598
5730,0.779419,-0.621582,-0.059448,-3.723144,-11.230468,-1.831055
5747,0.770996,-0.620483,-0.057129,-4.577637,-10.19287,-3.479004
5764,0.766846,-0.625977,-0.062256,-4.394531,-9.399414,-8.728027
5781,0.766479,-0.634644,-0.066284,0.244141,-10.925292,-12.756347
5797,0.764648,-0.662964,-0.071777,3.112793,-12.817382,-13.122558
5814,0.759155,-0.687622,-0.068481,3.540039,-17.822266,-12.08496
5830,0.760742,-0.696411,-0.066162,-7.568359,-24.719236,-12.390136
5847,0.772827,-0.690063,-0.067871,-17.272949,-29.479979,-13.916015
5863,0.783936,-0.683594,-0.064575,-38.513184,-42.41943,-21.484373
5880,0.778931,-0.685303,-0.023315,-65.124512,-50.292965,-34.179687
5897,0.739014,-0.747192,0.051025,-74.09668,-47.058102,-39.916992
5913,0.722778,-0.79248,0.069946,-75.805664,-23.071287,-43.701168
5930,0.662964,-0.909424,0.125244,-63.293453,19.40918,-36.376953
5947,0.668091,-1.017822,0.154541,-45.593258,49.926754,-25.634764
5963,0.672363,-1.064819,0.252197,23.925779,133.239746,24.29199
5979,0.660767,-1.21106,0.309204,64.880371,187.805161,61.95068
5995,0.788574,-1.17041,0.012451,55.541988,246.826157,129.02832
6011,0.839233,-1.010376,-0.071167,1.403808,226.684555,155.090332
6028,0.790771,-0.719116,-0.214966,-23.315428,216.79686,157.043457
6045,0.707275,-0.507812,-0.491455,-41.259762,204.040512,148.864746
6062,0.685913,-0.414551,-0.635498,-21.240232,171.203598,130.981445
6079,0.658081,-0.335938,-0.855103,-7.507324,144.897461,123.718254
6096,0.612427,-0.261108,-0.96814,18.676758,86.120598,116.394035
6112,0.610352,-0.239746,-1.02478,-9.155273,15.075683,109.191887
6128,0.623535,-0.22998,-1.095581,-38.330078,-34.667969,104.73632
6145,0.612793,-0.202148,-1.065186,-82.092278,-160.888657,94.78759
6162,0.602173,-0.12146,-0.816406,-79.772949,-292.724609,75.012207
6179,0.562744,-0.105103,-0.567749,-67.871094,-356.262177,64.453125
6197,0.37146,0.027466,-0.480469,-18.371582,-493.713348,43.090816
6214,0.238403,0.131836,-0.372681,74.768066,-641.357422,-1.464844
6230,-0.034058,-0.01123,0.187256,137.145996,-700.561462,-33.447266
6247,-0.02832,-0.357056,0.381226,106.262199,-764.404236,-77.514648
6264,-0.01062,-0.494385,0.364258,66.467285,-800.414978,-59.265133
6281,-0.300049,-0.986206,0.645508,63.171383,-794.860779,-0.610352
6297,-1.160889,-1.888672,0.867676,-67.260742,-713.622986,202.087387
6314,-1.59436,-2.062744,0.676392,-208.068832,-633.789063,454.894989
6331,-1.459473,-0.416016,1.586304,-139.282227,-610.534668,508.850067
6348,-0.905396,-0.334595,2.60376,116.516106,-396.850555,460.754364
6365,-0.869019,-0.570801,2.609741,213.195786,-26.30615,472.412079
6382,-0.658691,-0.291626,1.962891,238.708481,133.178711,494.811981
6399,-0.188477,-0.187378,1.554077,353.271454,334.716766,525.634766
6416,-0.085327,-0.332031,1.41748,381.591766,469.11618,499.694794
6433,-0.095459,-0.376831,1.14209,327.270477,530.517578,468.566864
6449,-0.145142,-0.169434,0.802734,160.949692,654.418884,369.262665
6466,-0.095825,-0.09729,0.586426,-77.636719,706.298767,238.2202
6483,0.366699,0.28418,0.085815,-205.688461,668.518005,161.865219
6499,0.954956,0.391602,-0.168945,-394.042938,475.036591,-8.422852
6516,1.025879,0.258789,-0.263672,-401.855438,244.934067,-131.347656
6533,0.863525,0.025391,-0.403442,-385.192841,142.456055,-169.555649
6550,0.677979,-0.102905,-0.375366,-331.848114,-5.676269,-241.088852
6567,0.581177,-0.27124,-0.319946,-317.749023,-98.144524,-323.120087
6583,0.349243,-0.80542,-0.110596,-316.28418,-145.874023,-361.144989
6600,0.415161,-1.499268,0.459229,-371.032684,-201.843246,-377.319305
6617,0.358765,-1.523926,0.717651,-397.582977,-100.158684,-278.015137
6634,0.005371,-1.118652,0.875977,-377.502411,-12.145995,-227.600082
6650,-0.028809,-0.846924,0.819214,-277.526855,141.174316,-178.894028
6667,0.146851,-0.803223,0.803345,-120.727531,235.961899,-145.874023
6684,0.531738,-0.917603,0.761353,-65.246582,268.798828,-122.25341
6700,0.677612,-1.063477,0.612671,-23.193357,318.54248,-82.092278
6717,0.693237,-1.098267,0.495483,-12.634276,338.989227,-60.729977
6734,0.696045,-1.075439,0.25415,-8.972168,336.18161,-55.480953
6750,0.699341,-0.999023,0.051147,3.723144,315.551758,-40.832516
6767,0.69812,-0.961792,-0.031738,23.010252,276.489258,-5.126953
6784,0.668823,-0.820068,-0.130127,36.682129,249.999985,15.563964
6800,0.601685,-0.747681,-0.147339,64.51416,192.016586,41.442867
6817,0.566406,-0.744385,-0.140381,84.472649,136.657715,45.227047
6833,0.57312,-0.684448,-0.148437,87.524406,112.915031,43.334957
6850,0.580688,-0.657471,-0.152222,86.059563,71.594238,40.161129
6867,0.597412,-0.654175,-0.121826,88.378899,38.818359,44.799801
6883,0.602295,-0.61377,-0.104004,88.86718,27.343748,49.255367
6900,0.608154,-0.577271,-0.105591,79.711914,10.681151,49.987789
6916,0.655029,-0.507812,-0.097778,68.786621,4.638672,44.43359
6933,0.71875,-0.504639,-0.112061,47.912594,-1.159668,28.503416
6949,0.755127,-0.51416,-0.131714,28.869627,-6.530761,13.549804
6966,0.821045,-0.544922,-0.147583,22.949217,-10.986327,8.056641
6983,0.851318,-0.571777,-0.156128,16.906738,-19.470215,2.13623
7000,0.854248,-0.590576,-0.151855,13.183593,-28.320311,-2.685547
7017,0.853394,-0.638428,-0.126953,11.657714,-32.104492,-4.516602
7034,0.85083,-0.660889,-0.109619,3.173828,-37.414551,-5.554199
7051,0.839355,-0.667114,-0.096558,0.0,-41.625973,-5.310058
7068,0.81311,-0.68042,-0.055542,2.807617,-41.198727,-3.90625
7085,0.794556,-0.682007,-0.021606,6.958007,-36.560059,1.464844
7102,0.790405,-0.669922,-0.005371,11.535644,-32.104492,4.821777
7119,0.7854,-0.660645,0.018433,17.822266,-25.573729,6.286621
7136,0.779053,-0.665771,0.023437,18.066406,-22.216795,6.958007
7152,0.782837,-0.664185,0.024658,14.648437,-16.418457,8.850098
7169,0.796265,-0.637939,0.013794,5.615234,-12.268065,9.643555
7186,0.799194,-0.610229,-0.005371,2.441406,-10.620116,9.399414
7203,0.803223,-0.585571,-0.029297,2.258301,-7.93457,8.911133
7220,0.803345,-0.580444,-0.033203,7.568359,-8.422852,6.286621
7236,0.805542,-0.591187,-0.02771,10.131835,-9.277344,4.882812
7253,0.81604,-0.587158,-0.019531,8.117676,-12.329101,4.02832
7270,0.814941,-0.584351,-0.015137,5.187988,-17.39502,2.807617
7287,0.802368,-0.588135,-0.007324,4.272461,-18.676758,1.89209
7304,0.801025,-0.59436,0.000122,3.356933,-18.432617,0.305176
7320,0.805542,-0.608765,0.008667,6.16455,-17.944336,1.159668
7337,0.810181,-0.622803,0.025146,5.065917,-17.272949,3.173828
7353,0.817139,-0.608887,0.03186,-0.793457,-16.357422,6.774902
7370,0.816895,-0.576416,0.036255,-1.281738,-16.235352,4.882812
7387,0.799316,-0.572998,0.036499,0.427246,-15.624999,1.464844
7403,0.791992,-0.581543,0.038208,4.333496,-12.023925,-5.981445
7420,0.796021,-0.603027,0.03894,6.713867,-7.568359,-7.568359
7437,0.801025,-0.617187,0.032837,6.591796,-6.896972,-6.469726
7454,0.800903,-0.619019,0.028564,3.173828,-8.361816,-5.798339
7471,0.797729,-0.626953,0.012329,-0.854492,-10.925292,-6.958007
7487,0.792847,-0.637695,-0.000854,-2.319336,-12.817382,-7.446289
7504,0.791382,-0.635498,-0.002075,-7.446289,-19.348145,-10.864257
7521,0.789673,-0.645996,0.015625,-18.371582,-28.869627,-20.568846
7538,0.807129,-0.702393,0.062134,-28.869627,-34.057617,-26.489256
7554,0.816162,-0.735474,0.101074,-60.18066,-39.123535,-31.799314
7571,0.809814,-0.79895,0.223389,-106.445305,-21.057127,-23.864744
7588,0.71106,-0.866211,0.378052,-116.882317,2.075195,-16.784668
7605,0.645386,-0.895386,0.425415,-97.167961,83.679192,-4.211426
7622,0.601196,-0.955444,0.398804,-72.44873,191.955551,5.92041
7639,0.754272,-0.972778,0.220825,-62.561031,239.990219,14.038085
7656,0.882568,-0.953369,0.043579,-62.133785,278.198242,42.66357
7673,0.888306,-0.923462,-0.010132,-56.884762,249.999985,66.40625
7689,0.825073,-0.829224,-0.019409,-39.0625,232.055649,74.890137
7706,0.758301,-0.769531,-0.072266,-1.770019,221.252426,88.378899
7723,0.681763,-0.647339,-0.380005,-12.268065,215.270981,99.243156
7740,0.579224,-0.47229,-0.710693,-20.874022,204.528793,99.731438
7756,0.560913,-0.415527,-0.872314,-1.342773,162.292465,100.036613
7773,0.58374,-0.413086,-1.190918,32.775879,64.941406,105.468742
7790,0.639771,-0.380249,-1.381348,25.268553,-13.244628,104.980461
7807,0.620483,-0.370117,-1.30481,-18.005371,-198.059067,97.351067
7823,0.603394,-0.306641,-0.939575,-34.484863,-363.464325,93.078606
7840,0.5896,-0.195068,-0.748047,-25.085447,-443.359344,97.717278
7857,0.458252,-0.04248,-0.654053,41.015621,-628.112793,107.238762
7874,0.041992,0.187622,-0.187378,132.995605,-781.73822,63.84277
7890,0.112427,0.218628,0.246094,114.19677,-816.833435,25.695799
7907,0.151367,0.018066,0.196655,59.753414,-850.830017,23.803709
7924,-0.429932,-0.622925,0.472412,92.468254,-852.111755,156.005859
7941,-1.318604,-1.323975,1.084351,45.715328,-814.208923,240.539536
7957,-1.689087,-1.574219,1.210205,-94.543449,-680.541931,427.856415
7974,-1.5271,-0.737793,1.744141,-21.789549,-511.84079,498.962372
7991,-0.750732,-0.036987,2.498901,81.542961,-374.084442,478.210419
8008,-0.651489,-0.187866,2.552979,231.079086,-5.676269,477.722137
8024,-0.493042,-0.124268,2.028931,334.777802,302.856445,520.141602
8041,-0.052368,-0.001343,1.27832,389.648407,400.268524,530.761719
8058,0.109741,-0.021484,1.059937,431.518524,513.061523,512.268066
8074,0.166504,0.010742,0.901733,409.851044,557.434082,485.473602
8091,-0.001221,-0.029541,0.742432,296.569824,656.127869,392.089813
8108,-0.003662,-0.097046,0.581665,32.531738,698.303162,241.882309
8125,0.435669,-0.034912,0.148071,-154.663086,653.381287,134.643555
8141,0.95813,-0.159546,-0.127808,-470.275848,431.396454,-96.130363
8157,0.974243,-0.239136,-0.224609,-568.115234,195.739731,-235.595688
8174,0.742065,-0.401001,-0.453003,-558.47168,114.135735,-268.493652
8190,0.515625,-0.598633,-0.442261,-512.512207,1.037598,-320.007324
8207,0.48291,-0.784058,-0.254883,-496.45993,-104.919426,-359.191864
8223,0.555542,-1.151733,0.51355,-466.85788,-112.609856,-339.782684
8240,0.25708,-1.068359,0.562378,-391.113251,-7.202148,-232.604965
8256,0.138062,-0.869019,0.559937,-297.851562,84.777824,-157.043457
8273,0.178223,-0.643921,0.709595,-221.679672,117.980949,-142.51709
8289,0.275391,-0.714111,0.7146,-52.001949,185.058578,-119.567863
8306,0.523804,-0.967773,0.565674,11.535644,213.13475,-106.018059
8322,0.744019,-1.169312,0.400269,64.880371,242.675766,-74.829102
8338,0.786865,-1.205078,0.340454,41.442867,248.535141,-44.921871
8355,0.762817,-1.116333,0.195312,26.672361,249.93895,-33.935547
8372,0.741577,-0.976196,0.026978,13.916015,239.135727,-14.587401
8388,0.747925,-0.920898,-0.019775,30.700682,200.439438,7.202148
8404,0.751099,-0.8396,-0.065918,41.442867,176.574692,19.470215
8421,0.732544,-0.817261,-0.080933,52.429195,128.78418,38.208008
8437,0.690186,-0.783325,-0.090942,56.27441,84.899895,42.968746
8454,0.677734,-0.746582,-0.097412,53.649899,64.453125,41.931149
8470,0.669434,-0.727661,-0.089844,51.818844,30.151365,41.015621
8487,0.64502,-0.704224,-0.073975,53.100582,18.249512,42.846676
8504,0.607788,-0.639282,-0.043457,54.626461,2.13623,47.302242
8520,0.5979,-0.603149,-0.029419,61.828609,-2.01416,48.645016
8536,0.604858,-0.57666,-0.016602,62.561031,-1.89209,48.21777
8553,0.616333,-0.560425,-0.003418,58.776852,-2.929687,47.180172
8570,0.628662,-0.550049,-0.008179,41.503902,-3.234863,42.602535
8586,0.668579,-0.50354,-0.028564,29.724119,-3.356933,37.719727
8603,0.740967,-0.486206,-0.049438,16.113281,-2.685547,25.634764
8619,0.788818,-0.492187,-0.061035,10.009766,-3.051758,14.465331
8636,0.867554,-0.5271,-0.096069,7.202148,-5.126953,9.70459
8653,0.903442,-0.560059,-0.10791,2.990722,-13.122558,0.427246
8669,0.911133,-0.570557,-0.099121,9.094238,-19.165039,-5.554199
8686,0.916016,-0.597656,-0.077271,13.244628,-20.38574,-6.713867
8703,0.88623,-0.625244,-0.043945,16.235352,-23.071287,-9.460449
8720,0.866821,-0.650024,-0.025513,11.840819,-23.254393,-11.96289
8736,0.83606,-0.680908,-0.008057,4.699707,-22.033689,-10.925292
8753,0.830078,-0.677979,0.000366,-7.080078,-21.789549,-4.760742
8770,0.814087,-0.653564,0.010864,-8.117676,-28.137205,-1.342773
8787,0.794434,-0.634888,0.021606,-4.089355,-33.508301,-2.197266
8804,0.766113,-0.661743,0.032349,11.291503,-44.128414,-4.455566
8820,0.749146,-0.686401,0.046265,24.108885,-46.44775,-0.671387
8837,0.73938,-0.703369,0.087646,24.902342,-42.785641,4.150391
8854,0.743652,-0.68811,0.09729,13.488769,-28.869627,14.282226
8870,0.761963,-0.637207,0.086914,-0.671387,-14.465331,16.601562
8887,0.791504,-0.605591,0.063721,-3.295898,-9.216309,14.587401
8904,0.811035,-0.598267,0.05127,-2.075195,-3.479004,9.216309
8920,0.842407,-0.592529,0.043335,5.065917,-5.798339,7.141113
8937,0.842407,-0.587769,0.047729,7.995605,-8.178711,6.530761
8953,0.836426,-0.585205,0.051636,9.033203,-12.268065,3.90625
8970,0.819458,-0.580078,0.052979,9.277344,-13.610839,2.319336
8987,0.802612,-0.588257,0.054077,11.535644,-14.831542,-0.732422
9003,0.798462,-0.59314,0.054077,11.413573,-14.709472,-2.929687
9020,0.798706,-0.595459,0.049927,10.620116,-14.953612,-3.417969
9036,0.796875,-0.596313,0.042236,9.58252,-16.906738,-3.234863
9053,0.796631,-0.599243,0.040649,7.568359,-19.53125,-2.929687
9070,0.80188,-0.599976,0.037231,5.554199,-21.606443,-2.868652
9086,0.804932,-0.586914,0.045044,1.342773,-28.808592,-4.577637
9103,0.807007,-0.583984,0.049805,-2.13623,-39.306641,-10.986327
9119,0.795532,-0.590698,0.078003,-5.004883,-45.959469,-15.86914
9136,0.753052,-0.628052,0.14917,-13.000487,-58.1665,-30.029295
9153,0.714722,-0.660522,0.192017,-20.080564,-64.63623,-51.330563
9170,0.641846,-0.77124,0.229004,-20.1416,-66.467285,-63.781734
9187,0.647827,-0.952881,0.331299,-11.96289,-64.331055,-79.101562
9203,0.675903,-1.019531,0.403564,-3.112793,-36.621094,-59.082027
9220,0.681763,-1.08313,0.559937,-3.845215,-5.004883,-36.254883
9237,0.662354,-1.096069,0.611572,-11.718749,98.754875,18.310547
9254,0.669434,-1.061523,0.543823,-34.484863,215.148911,63.110348
9270,0.662476,-0.957153,0.298462,-48.33984,258.911133,75.195312
9287,0.655396,-0.84729,0.115723,-60.05859,312.988281,85.20507
9304,0.648804,-0.806152,0.011963,-68.42041,344.665497,96.92382
9321,0.676025,-0.659302,-0.262207,-70.983887,351.989716,107.849113
9337,0.662354,-0.528076,-0.596436,-85.083,351.92868,135.375977
9354,0.618286,-0.451782,-0.763428,-83.007805,335.693329,158.14209
9371,0.504028,-0.311768,-1.134644,-54.26025,318.359375,163.391098
9387,0.49231,-0.274292,-1.360596,0.549316,243.041977,168.701157
9404,0.599487,-0.226929,-1.74707,-32.287598,79.772949,160.15625
9421,0.638184,-0.171753,-1.716431,-53.100582,-29.174803,147.216797
9437,0.640137,-0.138306,-1.522705,-53.039547,-246.948227,110.53466
9454,0.689575,-0.168091,-1.024414,-37.719727,-435.72995,78.979492
9471,0.562988,-0.092896,-0.66272,-18.981934,-527.893066,72.753906
9487,0.30603,0.085815,-0.603271,40.52734,-716.796814,60.363766
9504,-0.2854,0.167358,-0.090454,107.727043,-794.799744,33.752441
9521,-0.164673,-0.071045,0.63855,201.232895,-848.998962,-57.006832
9538,-0.170166,-0.245239,0.523682,166.13768,-813.659607,-60.791012
9554,-0.641602,-0.998779,0.564819,162.10936,-796.203552,-14.465331
9571,-0.900757,-1.641846,0.789795,45.959469,-721.923767,117.797844
9588,-1.029907,-1.666992,0.873901,-207.702621,-632.202148,299.316406
9604,-1.197876,-0.856567,0.831177,-289.978027,-598.999023,383.666962
9621,-0.723633,0.53186,1.73645,-146.30127,-508.300751,419.616669
9638,-0.541992,0.333252,2.226074,139.709473,-244.628891,374.755829
9655,-0.640869,-0.233154,2.404053,206.481918,-59.875484,396.118134
9671,-0.327759,-0.04541,1.817505,313.720703,272.338867,477.661102
9688,-0.128296,-0.014771,1.467651,432.556122,467.834442,533.508301
9705,0.093628,-0.129517,0.927246,463.684052,528.808594,535.095215
9721,0.005005,-0.164429,0.769409,442.993134,624.694824,495.056122
9738,-0.099854,-0.196411,0.669312,286.499023,706.115662,372.375458
9755,0.037842,-0.238403,0.436768,128.051758,708.251892,270.080566
9771,0.62146,-0.314331,0.169312,-242.919907,582.641602,24.780272
9788,0.761597,-0.383911,0.047852,-464.294403,381.957977,-183.65477
9804,0.662231,-0.530762,-0.268921,-511.596649,297.424316,-251.708969
9821,0.450073,-0.656616,-0.422607,-549.377441,170.776352,-338.378876
9838,0.399414,-0.795776,-0.359741,-538.269043,53.283688,-394.103973
9854,0.547241,-1.123535,-0.047974,-515.197754,-1.098633,-389.404266
9871,0.456665,-1.213013,0.362305,-479.370087,-38.391113,-304.199219
9887,0.33728,-1.175781,0.549316,-379.211395,22.705076,-189.941391
9904,0.127686,-0.977783,0.629883,-325.195282,68.42041,-142.51709
9921,0.149902,-0.911865,0.616699,-211.669907,118.591301,-96.435539
9938,0.432373,-0.946899,0.745117,-83.923332,132.69043,-75.500488
9954,0.629639,-1.065918,0.792236,-41.503902,142.211914,-60.302731
9971,0.663574,-1.099243,0.760132,-4.638672,165.710434,-30.944822
9987,0.64856,-1.130493,0.65918,7.385253,184.326157,-9.82666
10004,0.59082,-1.092529,0.506592,14.587401,188.537582,0.12207
10020,0.571045,-1.020752,0.42395,36.193848,183.471664,16.540527
10037,0.538574,-0.900146,0.304932,47.058102,177.673325,20.507811
10053,0.498047,-0.85791,0.223877,55.480953,166.992172,25.634764
10070,0.470581,-0.831665,0.203369,66.345215,164.062485,34.545898
10086,0.450684,-0.797241,0.106323,71.228027,166.870102,39.489746
10102,0.507202,-0.748901,-0.002441,66.40625,162.3535,48.095699
10119,0.536011,-0.709717,-0.036865,63.781734,142.211914,56.091305
10136,0.601318,-0.634644,-0.101563,63.354488,130.310059,59.387203
10152,0.63147,-0.591675,-0.138916,63.537594,103.088371,61.889645
10169,0.693359,-0.538086,-0.177368,70.007324,74.09668,51.635738
10185,0.746216,-0.503296,-0.192261,75.073242,60.05859,43.762203
10202,0.762695,-0.526733,-0.197754,85.998528,38.391113,34.545898
10218,0.779541,-0.568604,-0.208252,84.350578,29.113768,32.165527
10235,0.783691,-0.563721,-0.19873,71.655273,12.817382,24.04785
10252,0.798828,-0.556763,-0.203369,49.255367,3.356933,13.85498
10268,0.817993,-0.562744,-0.21936,38.330078,-1.159668,10.681151
10285,0.822998,-0.567505,-0.210815,27.282713,-12.390136,9.094238
10302,0.828979,-0.558472,-0.199707,18.798828,-24.475096,8.605957
10319,0.829468,-0.557495,-0.164917,15.808105,-30.883787,7.873535
10335,0.81604,-0.570557,-0.116333,14.648437,-40.039062,7.629394
10352,0.807617,-0.574707,-0.095093,10.620116,-41.503902,9.399414
10369,0.800659,-0.575317,-0.057617,8.300781,-40.771481,9.521484
10386,0.807129,-0.581787,-0.02478,3.723144,-40.893551,7.873535
10402,0.807983,-0.585937,-0.00415,1.342773,-44.067379,5.065917
10419,0.803589,-0.591797,0.027466,1.403808,-44.31152,4.577637
10435,0.791992,-0.593994,0.043579,3.845215,-40.832516,3.967285
10451,0.794067,-0.599731,0.052002,8.728027,-34.362793,1.464844
10468,0.796631,-0.633301,0.072876,10.925292,-30.517576,1.220703
10484,0.797607,-0.641357,0.075073,7.690429,-20.446775,3.601074
10500,0.810547,-0.620117,0.065918,3.540039,-15.441894,4.943848
10517,0.827637,-0.590698,0.042603,-1.098633,-8.728027,4.882812
10533,0.834595,-0.583252,0.030762,-0.305176,-7.93457,1.708984
10549,0.840698,-0.5896,0.016479,1.281738,-9.094238,0.793457
10566,0.841187,-0.5896,0.018066,2.075195,-13.671874,1.586914
10582,0.832031,-0.581787,0.020386,-0.305176,-18.249512,2.441406
10599,0.814331,-0.566772,0.022461,0.244141,-19.042969,2.502441
10615,0.809937,-0.562622,0.026123,5.004883,-19.042969,1.281738
10632,0.807373,-0.571045,0.0354,6.835937,-19.714355,-2.319336
10649,0.807861,-0.589722,0.036865,4.699707,-20.26367,-4.02832
10665,0.811401,-0.596558,0.034302,-3.90625,-22.705076,-4.760742
10682,0.81543,-0.592163,0.023193,-13.366698,-28.686522,-4.943848
10699,0.810303,-0.571289,0.014771,-16.113281,-33.26416,-6.835937
10716,0.80481,-0.555908,0.016724,-13.000487,-44.982906,-16.235352
10732,0.769775,-0.546631,0.034912,-8.544922,-51.879879,-25.817869
10749,0.776611,-0.597046,0.049805,-32.348633,-72.387695,-61.767574
10766,0.78479,-0.603394,0.121094,-104.248039,-99.975578,-104.309074
10782,0.775635,-0.654541,0.132446,-136.169434,-106.872551,-117.736809
10799,0.74707,-0.843628,0.0802,-155.273437,-132.873535,-100.952141
10816,0.768555,-0.888062,0.116577,-104.919426,-172.790512,-42.602535
10833,0.806641,-0.838623,0.348999,-83.312981,-185.791,-16.296387
10849,0.671021,-0.829956,0.99292,-42.724606,-150.45166,19.348145
10866,0.50293,-0.802002,1.339233,-32.653809,67.077637,20.202635
10883,0.234985,-1.07312,1.131226,-56.823727,217.468246,7.751464
10899,0.222412,-0.982544,0.711304,-70.129395,434.204071,5.310058
10916,0.284424,-0.791748,0.518311,-60.729977,534.790039,5.798339
10932,0.493408,-0.821045,-0.040161,-63.354488,545.593262,10.437011
10949,0.622559,-0.839844,-0.552124,-42.236324,494.20163,62.561031
10965,0.597656,-0.770752,-0.701416,-17.883301,410.827606,116.149895
10982,0.460571,-0.594116,-0.916016,4.089355,374.206512,128.78418
10998,0.45459,-0.444214,-1.223389,80.810539,289.489746,135.925293
11015,0.546997,-0.41394,-1.366821,114.074699,145.446777,142.822266
11031,0.716187,-0.38562,-1.502563,90.637199,47.424313,144.40918
11048,0.723633,-0.334351,-1.425415,22.216795,-174.438461,133.361816
11064,0.709229,-0.14563,-1.030884,11.718749,-278.686523,121.948235
11081,0.591187,-0.119507,-0.545166,30.09033,-454.040497,88.98925
11097,0.512451,-0.135254,-0.357666,80.871574,-590.942383,53.588863
11114,0.196533,-0.12439,-0.229858,124.02343,-660.461365,37.658691
11130,-0.203979,-0.205078,0.181274,193.6035,-771.118103,1.037598
11147,-0.159424,-0.235718,0.334351,97.961418,-802.795349,-28.869627
11164,-0.369751,-0.512573,0.500122,42.907711,-814.75824,-13.793944
11181,-1.036011,-1.357056,0.755371,-34.301758,-803.893982,120.422356
11197,-1.304443,-1.414429,0.863525,-66.894531,-739.807068,318.54248
11214,-1.343994,-0.603882,1.338257,-25.268553,-701.171814,367.736786
11231,-1.009888,-0.299316,1.98999,102.111809,-560.302734,390.075653
11248,-0.886353,-0.377319,2.304932,215.576157,-288.391113,408.935516
11265,-0.823242,-0.47583,2.297363,246.459946,-116.699211,426.208466
11282,-0.502319,-0.425293,1.760498,294.799805,165.405258,471.618622
11298,-0.273682,-0.368896,1.525635,352.050751,330.993622,515.74707
11315,0.121948,-0.331787,1.137451,373.168915,387.878387,518.249512
11331,0.307861,-0.279419,0.904785,326.47702,480.71286,487.548798
11348,0.34082,-0.106201,0.815308,222.961411,562.255859,402.099579
11364,0.365479,0.080688,0.629639,175.659164,589.72168,343.139618
11381,0.424561,0.108521,0.498657,64.025879,575.561523,201.416
11397,0.715698,0.133545,0.240967,-5.615234,522.644043,117.675774
11413,0.805176,-0.03833,0.071655,-132.873535,363.159149,-51.330563
11430,0.729614,-0.131592,-0.004639,-204.223618,242.065414,-181.091293
11447,0.535034,-0.435303,-0.223511,-240.600571,210.388168,-230.834946
11463,0.336426,-0.737305,-0.351929,-353.6987,169.860825,-315.429687
11480,0.258911,-0.935425,-0.313477,-480.285614,124.816887,-382.93454
11497,0.383667,-1.367065,-0.224121,-524.108887,98.266594,-387.634247
11514,0.517456,-1.376099,-0.119507,-584.16748,50.048824,-333.312958
11530,0.57959,-1.279297,0.05896,-595.703125,28.320311,-247.131332
11547,0.30542,-1.202515,0.464355,-559.875488,52.551266,-193.176254
11563,0.122559,-0.857544,0.51001,-374.206512,132.141113,-107.482903
11580,0.234253,-0.789062,0.598022,-193.908676,172.302231,-85.571281
11597,0.419556,-0.921143,0.683228,-137.634277,190.185532,-77.514648
11613,0.487549,-1.019287,0.617676,-68.54248,218.749985,-47.424313
11630,0.518066,-1.013184,0.587036,-21.118162,221.618637,-9.887695
11646,0.560181,-0.975342,0.469482,4.333496,215.454086,6.103515
11663,0.557617,-0.917358,0.34729,58.532711,192.871078,28.564451
11679,0.557861,-0.92395,0.307861,90.270988,164.489731,45.104977
11696,0.538574,-0.909546,0.285156,94.116203,153.808594,54.077145
11713,0.517944,-0.869385,0.255005,83.496086,143.798828,67.443848
11729,0.504517,-0.763794,0.1875,83.862297,133.850098,74.829102
11746,0.535889,-0.662476,0.139282,82.763664,128.417969,75.500488
11763,0.546997,-0.62793,0.11377,71.350098,116.882317,72.814941
11779,0.562256,-0.567261,0.064941,65.307617,110.473625,71.166992
11796,0.588257,-0.536377,0.01123,59.387203,96.862785,67.565918
11812,0.611328,-0.514282,-0.004517,61.401363,77.575684,64.63623
11829,0.644409,-0.477539,-0.029297,64.025879,66.772461,61.889645
11846,0.665405,-0.460693,-0.037964,63.232418,47.363277,47.973629
11863,0.685303,-0.463745,-0.048706,50.47607,36.437988,30.2124
11879,0.728882,-0.470825,-0.092529,41.076656,31.921385,23.742674
11896,0.783447,-0.47876,-0.102295,36.071777,21.972654,15.502929
11913,0.807007,-0.491577,-0.119141,33.813477,16.357422,7.751464
11929,0.847168,-0.532471,-0.165894,30.2124,14.953612,1.953125
11946,0.904053,-0.565796,-0.208496,22.766111,13.427733,-11.108397
11963,0.919678,-0.591187,-0.222534,25.817869,11.108397,-18.920898
11979,0.924561,-0.658447,-0.226562,28.320311,8.972168,-19.592285
11996,0.92981,-0.697266,-0.211182,23.437498,1.281738,-13.97705
12013,0.920166,-0.69458,-0.194458,10.742187,-12.939452,-5.92041
12029,0.880615,-0.677856,-0.128296,6.652832,-19.65332,-2.685547
12046,0.840942,-0.656982,-0.069336,-4.516602,-28.503416,2.624511
12063,0.81311,-0.640747,-0.036377,-10.864257,-32.409668,2.868652
12079,0.776978,-0.617554,0.014526,-8.117676,-31.494139,2.075195
12096,0.757568,-0.632446,0.046021,3.845215,-26.855467,1.037598
12113,0.756836,-0.647583,0.052002,12.023925,-21.362303,0.0
12129,0.768677,-0.656982,0.055786,10.19287,-19.348145,-0.915527
12146,0.778198,-0.654175,0.056885,5.004883,-16.113281,0.610352
12163,0.789673,-0.632812,0.034058,-0.549316,-12.329101,5.554199
12179,0.797974,-0.600952,0.006348,-2.502441,-11.047362,5.737304
12196,0.804932,-0.594116,-0.003784,-0.427246,-9.460449,3.356933
12213,0.820068,-0.594727,-0.015747,2.990722,-9.155273,2.807617
12230,0.828735,-0.587891,-0.019409,2.868652,-9.521484,3.051758
12246,0.83252,-0.580933,-0.021118,-0.854492,-12.08496,2.624511
12263,0.833496,-0.57959,-0.02771,-5.554199,-16.784668,0.366211
12280,0.839844,-0.582275,-0.033936,-8.117676,-19.714355,-0.488281
12296,0.843994,-0.580811,-0.036987,-13.549804,-29.052732,-0.854492
12313,0.846069,-0.579224,-0.041504,-19.165039,-46.020504,-2.075195
12330,0.847168,-0.58252,-0.033569,-20.751951,-57.128902,-2.685547
12347,0.838013,-0.585083,-0.024658,-20.446775,-82.275383,-3.540039
12364,0.808716,-0.583984,0.009521,-15.686034,-108.215324,-6.408691
12381,0.790894,-0.564941,0.067261,-9.399414,-120.727531,-8.728027
12397,0.782837,-0.583862,0.101807,-9.82666,-145.019531,-16.784668
12414,0.746338,-0.672852,0.232788,-36.560059,-165.039047,-30.273436
12430,0.694214,-0.731567,0.429321,-65.612793,-167.9077,-39.733887
12447,0.65979,-0.746704,0.543579,-92.712395,-146.972656,-50.842281
12464,0.524048,-0.765869,0.832886,-70.861816,-103.637688,-50.47607
12480,0.364136,-0.99353,1.085449,2.319336,86.425774,-47.119137
12497,0.327271,-1.159424,0.987061,47.302242,372.619598,-5.004883
12513,0.487305,-1.169067,0.439819,24.16992,472.77829,34.912109
12529,0.672852,-0.888916,0.386108,37.597656,535.888672,96.130363
12546,0.624512,-0.864136,0.281372,43.457027,545.471191,124.328606
12562,0.557983,-0.747314,-0.303711,13.000487,545.410156,134.460449
12579,0.548218,-0.542603,-0.845581,-2.502441,508.17868,141.845703
12596,0.519287,-0.533447,-1.084961,60.241695,409.179657,128.234863
12613,0.50708,-0.485474,-1.463989,86.669914,337.890594,118.22509
12629,0.4021,-0.348511,-1.611206,97.167961,169.250473,102.172844
12646,0.305176,-0.261719,-1.542114,54.13818,11.840819,93.749992
12663,0.170776,-0.153687,-1.407227,32.470703,-50.354,86.914055
12679,0.18335,-0.133179,-1.383423,6.591796,-161.621078,68.42041
12696,0.240479,-0.121582,-1.335571,-24.108885,-286.437988,52.978512
12713,0.347778,-0.060181,-1.112549,-45.532223,-352.111786,45.349117
12729,0.44873,-0.045776,-0.919434,-71.899414,-485.656708,31.066893
12746,0.579834,-0.125366,-0.641724,-56.640621,-558.71582,30.09033
12762,0.127686,0.089111,-0.374878,61.95068,-729.797302,35.400391
12779,-0.148926,0.226807,-0.15564,185.729965,-850.097595,-21.301268
12795,-0.140991,-0.021118,0.099487,143.127441,-876.647888,-62.805172
12812,-0.234131,-0.513062,0.505371,23.742674,-889.770447,-52.551266
12828,-0.413574,-0.810913,0.777222,30.151365,-786.743103,131.103516
12844,-1.333496,-1.839722,0.922729,-13.488769,-702.575623,273.742676
12861,-1.396484,-0.589355,1.465332,25.512693,-591.674805,493.835419
12878,-0.900146,-0.046631,1.896362,212.524399,-430.908173,473.632782
12895,-0.311768,-0.354126,2.185791,292.602539,-286.987305,449.279755
12912,-0.210327,-0.442749,1.685425,382.324188,9.338379,465.08786
12928,-0.087036,-0.366821,1.463135,445.67868,191.040024,503.784149
12945,0.163086,-0.33606,1.216064,472.351044,251.342758,512.145996
12961,0.263062,-0.339478,1.128418,485.717743,351.257294,494.567841
12978,0.361694,-0.349854,0.981567,414.550751,453.735321,442.016571
12994,0.249634,-0.119385,0.761719,357.055634,509.033173,403.564423
13010,0.21167,-0.090454,0.570923,210.815414,589.904785,294.311523
13027,0.341675,-0.091797,0.240234,116.333,598.144531,219.909653
13043,0.508789,-0.163208,-0.008179,-97.167961,549.377441,44.616695
13060,0.509277,-0.253296,-0.175171,-277.099609,470.825165,-106.018059
13077,0.406372,-0.478149,-0.568604,-376.953094,429.992645,-163.146957
13094,0.267456,-0.768311,-0.717285,-553.161621,342.224091,-266.296387
13111,0.188965,-0.992065,-0.70752,-635.070801,269.042969,-361.877411
13128,0.327271,-1.461304,-0.656738,-623.657227,230.712875,-375.610321
13145,0.500122,-1.352295,-0.429443,-580.200195,159.301758,-300.78125
13161,0.463379,-1.242676,-0.195435,-436.523407,149.047852,-146.179199
13178,0.119873,-1.399902,0.003784,-332.15329,165.527328,-58.349606
13195,0.334106,-1.389404,0.050171,-153.625488,165.527328,65.124512
13211,0.575806,-1.333984,0.090942,-83.557121,139.221191,89.904778
13228,0.623901,-1.085205,0.133667,-81.665031,128.90625,84.045403
13245,0.551514,-1.117798,0.139526,-67.993164,119.934074,48.583981
13261,0.53894,-1.20459,0.149048,-28.808592,121.826164,25.573729
13278,0.466675,-1.233032,0.101074,-7.507324,125.488274,27.9541
13295,0.418579,-1.179199,-0.024414,22.644041,126.525871,45.349117
13311,0.408813,-1.163086,-0.049072,11.413573,114.135735,60.119625
13328,0.390747,-1.027222,-0.03418,2.929687,109.313957,64.208984
13345,0.404785,-0.933594,-0.075562,-13.000487,99.121086,67.749023
13361,0.428955,-0.888306,-0.095093,-10.925292,84.594719,74.401855
13378,0.481079,-0.769897,-0.141479,-4.394531,76.35498,78.491211
13395,0.506348,-0.725952,-0.148926,16.052246,56.579586,84.594719
13412,0.517456,-0.719727,-0.149414,32.592773,43.701168,91.857903
13428,0.550293,-0.671631,-0.165527,32.714844,38.024902,93.933098
13445,0.586792,-0.61731,-0.164917,33.081055,23.498533,88.134758
13461,0.612671,-0.604736,-0.174194,32.836914,14.404296,77.636719
13478,0.656738,-0.580322,-0.183594,31.86035,9.521484,71.899414
13495,0.684814,-0.567993,-0.182251,33.447266,-1.098633,59.814449
13512,0.744263,-0.56604,-0.173096,33.569336,-12.023925,48.095699
13528,0.794556,-0.576538,-0.15271,33.630371,-17.089844,43.151852
13545,0.814453,-0.585327,-0.142578,27.709959,-25.085447,34.606934
13562,0.826294,-0.570679,-0.119385,24.780272,-28.686522,25.573729
13578,0.837524,-0.562866,-0.101929,24.04785,-28.869627,21.179197
13595,0.845703,-0.565552,-0.086914,23.498533,-30.822752,13.732909
13613,0.847656,-0.610718,-0.04834,18.249512,-32.958984,14.587401
13629,0.829956,-0.613647,-0.020142,10.803222,-33.14209,17.63916
13646,0.810669,-0.543579,-0.003296,-2.990722,-32.104492,21.301268
13663,0.803589,-0.512085,0.001831,1.098633,-30.761717,14.770507
13680,0.805176,-0.481812,0.001831,11.718749,-30.944822,8.239746
13696,0.806885,-0.500122,0.001465,38.208008,-32.714844,-3.723144
13713,0.797241,-0.582642,0.012085,47.668453,-33.874512,-7.751464
13729,0.785156,-0.63208,0.025513,42.968746,-32.226562,-6.530761
13746,0.781616,-0.628052,0.019531,19.592285,-24.108885,-1.037598
13763,0.781616,-0.60022,0.001465,-2.685547,-14.404296,0.671387
13780,0.789429,-0.572021,-0.015137,-7.507324,-10.0708,-1.220703
13797,0.796631,-0.56604,-0.019775,-5.126953,-3.417969,-6.16455
13813,0.804321,-0.580444,-0.02832,1.220703,-1.708984,-8.117676
13830,0.798706,-0.59314,-0.03064,3.784179,-2.746582,-9.155273
13847,0.791016,-0.606567,-0.029053,7.263183,-6.408691,-11.657714
13863,0.771729,-0.642456,-0.022949,4.150391,-9.94873,-13.000487
13880,0.759521,-0.66626,-0.022827,-0.061035,-11.230468,-12.878417
13898,0.760498,-0.669312,-0.025635,-10.986327,-14.465331,-11.535644
13914,0.769165,-0.652222,-0.033569,-21.240232,-21.545408,-11.474608
13931,0.775024,-0.635132,-0.036255,-24.16992,-26.916502,-13.183593
13948,0.779907,-0.635864,-0.030762,-26.367186,-41.503902,-18.737793
13965,0.784058,-0.651611,-0.004395,-27.770994,-60.119625,-26.000975
13981,0.757935,-0.682617,0.074585,-33.935547,-69.030762,-31.616209
13998,0.705444,-0.716919,0.167603,-60.302731,-66.223145,-50.537106
14015,0.557495,-0.805908,0.309082,-88.806145,-16.723633,-73.852539
14031,0.543091,-1.012085,0.383057,-104.73632,19.714355,-80.13916
14048,0.609497,-1.064209,0.440796,-109.863274,122.741692,-63.171383
14065,0.633545,-1.075317,0.523926,-58.898922,268.737793,-11.657714
14082,0.656616,-1.060913,0.32666,-32.836914,329.101532,21.606443
14099,0.671143,-1.007202,0.314087,37.536621,396.362274,78.369141
14115,0.67981,-1.042969,0.136108,71.960449,415.283173,101.196281
14132,0.781006,-1.019165,-0.445923,54.077145,411.621063,147.583008
14148,0.832153,-0.948242,-0.732178,-15.136718,327.392548,187.43895
14165,0.777466,-0.738647,-0.920288,-20.324705,264.648437,192.810043
14181,0.61853,-0.449707,-0.997559,26.30615,146.179199,170.898422
14198,0.538452,-0.30249,-1.022949,35.705566,70.43457,135.253906
14214,0.429443,-0.212646,-1.046875,34.790039,50.842281,122.802727
14231,0.493896,-0.188843,-1.121094,28.015135,13.000487,109.008781
14247,0.547729,-0.158936,-1.14917,-3.723144,-59.570309,102.72216
14265,0.615723,-0.08374,-1.177124,-25.390623,-109.069817,100.58593
14281,0.586426,-0.015625,-1.063843,-69.091797,-227.600082,87.585442
14298,0.539917,-0.022339,-0.891113,-71.594238,-353.210419,51.574703
14315,0.438232,-0.167725,-0.507568,-56.15234,-409.362762,28.930662
14331,0.303711,-0.260254,-0.283813,-29.479979,-522.521973,1.464844
14348,0.14856,-0.207642,-0.163086,1.464844,-641.906738,1.831055
14364,-0.022949,0.016235,0.058105,13.671874,-687.316833,-7.8125
14381,-0.071899,-0.043945,0.09082,-61.706539,-743.225037,-36.987305
14398,-0.231812,-0.216187,0.106201,-56.823727,-802.001892,-10.498046
14415,-0.638306,-0.644775,0.377441,-37.17041,-824.096619,39.428711
14431,-1.334961,-0.924683,0.744019,-62.377926,-808.166443,186.279282
14448,-1.624146,-1.035522,0.8927,-105.895988,-749.206482,328.063934
14465,-1.733276,-0.670166,1.459595,-68.237305,-707.641541,378.295868
14482,-1.613159,-0.549683,1.882324,42.175289,-521.30127,436.950653
14498,-1.365723,-0.587769,2.408569,96.374504,-186.035141,505.004852
14515,-0.950562,-0.36499,2.200195,125.427238,-11.535644,535.461426
14532,-0.486572,-0.266846,1.632813,194.580063,251.342758,591.674805
14549,-0.33728,-0.163574,1.359253,254.882797,377.685516,631.225586
14566,-0.110352,-0.076904,1.04187,273.071289,412.048309,622.924805
14582,0.046387,0.199097,1.039917,270.812988,472.167938,546.569824
14599,0.118896,0.269165,0.988647,256.591797,547.729492,417.724579
14616,0.209961,0.198975,0.754517,234.985336,579.650879,349.91452
14632,0.234863,0.167114,0.635132,149.108887,594.482422,207.580551
14648,0.403931,0.052368,0.390259,87.768547,573.547363,128.662109
14665,0.609741,-0.22583,0.049561,-75.561523,479.370087,-22.094725
14682,0.639282,-0.32373,-0.105835,-252.136215,369.995087,-146.484375
14698,0.564331,-0.460205,-0.373169,-338.928192,329.162567,-202.270493
14715,0.456421,-0.742676,-0.48584,-484.985321,269.775391,-305.114746
14732,0.40625,-0.969238,-0.451416,-533.752441,221.923813,-380.004852
14749,0.449097,-1.394897,-0.341919,-518.615723,208.190903,-384.399384
14766,0.39563,-1.452637,-0.202637,-517.028809,219.421371,-321.350067
14783,0.343994,-1.427002,-0.119019,-452.514618,245.605453,-197.204575
14800,0.268311,-1.366943,0.066162,-384.643524,248.962387,-115.112297
14817,0.38562,-1.063354,0.241943,-223.632797,226.440414,28.930662
14833,0.505127,-0.978271,0.31604,-70.068359,190.917953,76.538086
14850,0.644531,-1.0177,0.345825,-7.690429,181.88475,75.805664
14866,0.611694,-1.149536,0.198608,55.236813,183.349594,66.589355
14883,0.572144,-1.162598,0.11438,36.621094,189.57518,64.51416
14899,0.545044,-1.034546,-0.006958,20.629881,191.3452,62.255856
14916,0.530151,-0.885254,-0.105469,13.122558,188.964828,54.443356
14932,0.518677,-0.836426,-0.166382,32.226562,176.452621,48.33984
14949,0.515015,-0.78479,-0.280029,37.719727,164.306625,46.691891
14965,0.539185,-0.765991,-0.306274,27.465818,129.638672,50.659176
14982,0.540649,-0.728394,-0.277588,29.052732,95.642082,59.143063
14998,0.555054,-0.64917,-0.289551,33.203125,82.397453,59.875484
15014,0.572876,-0.630005,-0.318359,28.015135,52.856441,57.617184
15031,0.625,-0.588989,-0.327759,23.864744,36.193848,56.396481
15047,0.683105,-0.535278,-0.312866,23.010252,6.713867,54.13818
15064,0.70105,-0.520264,-0.30542,23.010252,-15.686034,45.837399
15080,0.733154,-0.508057,-0.289429,21.972654,-23.620604,39.001465
15097,0.763428,-0.526245,-0.259399,20.812986,-34.057617,24.04785
15113,0.764038,-0.556274,-0.233521,26.733397,-36.621094,13.916015
15130,0.765503,-0.597656,-0.206421,23.315428,-33.935547,10.498046
15146,0.778809,-0.59668,-0.199585,4.455566,-28.381346,1.831055
15163,0.789551,-0.597168,-0.192749,1.953125,-25.512693,-5.371093
15179,0.803223,-0.631104,-0.174438,5.859375,-25.146482,-7.751464
15196,0.800659,-0.671143,-0.158569,11.291503,-28.442381,-10.925292
15213,0.80542,-0.73999,-0.112061,3.90625,-36.743164,-7.568359
15230,0.824219,-0.737915,-0.064087,-2.807617,-42.358395,-3.540039
15247,0.832886,-0.717651,-0.046021,-11.596679,-54.687496,5.737304
15263,0.817627,-0.654663,-0.012451,-4.211426,-59.631344,12.817382
15280,0.75769,-0.631348,0.005249,2.502441,-56.213375,13.916015
15296,0.730469,-0.634888,0.010376,10.925292,-39.489746,8.361816
15313,0.713623,-0.65271,0.004639,10.31494,-28.259275,3.845215
15329,0.731567,-0.684082,-0.018188,3.356933,-7.690429,-0.671387
15346,0.742554,-0.690063,-0.033936,-6.896972,4.150391,3.723144
15363,0.7771,-0.65564,-0.063965,-10.803222,5.493164,6.958007
15379,0.804687,-0.592163,-0.073608,-9.155273,-0.793457,11.718749
15396,0.800415,-0.569336,-0.073975,-0.244141,-11.169433,8.422852
15413,0.777588,-0.556274,-0.076904,3.845215,-14.770507,3.540039
15430,0.773804,-0.56543,-0.082275,10.375976,-17.700195,-6.591796
15446,0.776123,-0.572876,-0.082397,16.052246,-19.470215,-11.596679
15463,0.786377,-0.580811,-0.081421,17.63916,-21.118162,-12.512206
15480,0.776123,-0.579712,-0.092651,16.723633,-26.30615,-16.601562
15497,0.770752,-0.581055,-0.098267,16.723633,-34.179687,-25.878904
15513,0.771118,-0.619263,-0.092163,20.690916,-40.771481,-30.456541
15530,0.74292,-0.672607,-0.036865,33.508301,-62.316891,-40.40527
15547,0.726562,-0.690308,0.002808,2.746582,-88.684074,-71.044922
15563,0.739258,-0.712646,0.073853,-45.959469,-101.867668,-91.796867
15580,0.670044,-0.814697,0.222656,-114.501945,-115.234367,-111.145012
15597,0.605469,-0.921143,0.28125,-83.862297,-90.087883,-90.087883
15614,0.476929,-1.203979,0.39856,-56.518551,-58.654781,-67.077637
15631,0.38501,-1.399658,0.56958,-24.780272,52.12402,-2.746582
15647,0.340698,-1.397095,0.646729,-49.438473,223.876938,55.236813
15664,0.425537,-1.21167,0.401367,-65.246582,309.082031,76.416016
15681,0.584229,-0.992554,0.112549,-70.43457,393.066376,102.844231
15698,0.616821,-0.967285,-0.000854,-31.86035,395.507782,120.36132
15714,0.604126,-0.923096,-0.274414,-22.827147,385.253876,132.69043
15731,0.526978,-0.675903,-0.565308,-40.222164,357.177704,158.508301
15748,0.499268,-0.555542,-0.697998,-41.076656,319.641113,168.884262
15764,0.390015,-0.45166,-1.055908,-26.672361,294.433594,168.701157
15781,0.395142,-0.404663,-1.404053,23.010252,216.125473,171.997055
15798,0.437744,-0.333496,-1.497803,59.387203,91.430656,182.250961
15814,0.4552,-0.202759,-1.555054,50.292965,15.441894,181.457504
15831,0.443481,-0.188354,-1.514648,17.39502,-151.611328,160.644516
15847,0.477417,-0.076904,-1.332642,-3.479004,-318.237305,127.258293
15864,0.494873,-0.041992,-0.96228,-13.549804,-397.155731,109.619133
15880,0.484619,-0.056274,-0.765747,-0.549316,-543.579102,75.683594
15897,0.30481,0.071655,-0.497437,66.040039,-697.265564,42.785641
15914,-0.11499,0.26062,-0.187256,119.567863,-770.446716,14.892577
15930,-0.185791,0.244019,0.164551,122.070305,-856.872498,-66.650391
15947,-0.181763,0.165894,0.328735,78.125,-877.136169,-100.341789
15964,-0.605957,-0.72998,0.452026,144.775391,-923.583923,-70.129395
15981,-0.918213,-1.184204,0.702759,134.521484,-884.033142,81.237785
15998,-1.423706,-1.581299,1.292114,-25.390623,-727.172791,270.324707
16014,-1.587524,-1.371216,1.599365,-71.166992,-612.731934,371.826141
16032,-1.464966,-1.030518,1.639771,-75.256348,-368.347137,503.051727
16048,-0.901489,-0.385742,1.647827,66.345215,-168.273911,513.427734
16065,-0.579346,-0.419067,2.017822,151.306152,-69.396973,505.859344
16082,-0.574585,-0.434204,2.029175,219.116196,178.710922,502.1362
16099,-0.399902,-0.126953,1.50415,265.319824,386.596649,469.299286
16115,-0.143677,-0.05896,1.034302,306.091309,457.031219,440.795868
16132,-0.035034,-0.047729,0.916382,376.769989,554.260254,377.197235
16149,0.056885,-0.046753,0.633545,358.886688,609.680176,313.720703
16166,0.078491,-0.070068,0.362305,310.424805,617.370605,274.841309
16182,0.177368,-0.103638,0.267944,170.654282,577.758789,174.804672
16199,0.400269,-0.157715,0.09668,88.86718,537.475586,119.323723
16215,0.447632,-0.138794,-0.122192,-91.125481,450.500458,2.01416
16232,0.416504,-0.193848,-0.237427,-249.755844,382.507294,-133.728027
16248,0.348755,-0.375366,-0.450439,-320.495605,354.553192,-203.06395
16265,0.262817,-0.706177,-0.541382,-455.444305,304.748535,-315.979004
16282,0.246704,-0.996338,-0.544067,-549.926758,257.385254,-368.652313
16298,0.255981,-1.370728,-0.519287,-541.931152,235.656723,-358.032196
16315,0.224854,-1.304565,-0.387085,-447.32663,200.500473,-291.19873
16332,0.238647,-1.432739,-0.226074,-311.157227,162.536606,-168.212875
16348,0.138794,-1.658691,0.090698,-240.905746,147.949219,-84.350578
16365,0.153931,-1.443115,0.328369,-129.699707,122.25341,23.681639
16381,0.245361,-1.414673,0.353027,-83.679192,127.502434,9.033203
16398,0.354736,-1.428101,0.232666,-84.411613,136.962891,-5.004883
16415,0.285156,-1.392334,0.149658,-68.969727,149.597168,-1.525879
16431,0.252563,-1.39624,0.108765,-6.469726,153.747559,26.855467
16448,0.238647,-1.338013,0.035522,16.967773,149.902344,39.0625
16465,0.243652,-1.275024,0.012207,23.925779,137.939453,55.053707
16481,0.282227,-1.153442,-0.015015,11.047362,124.02343,68.603516
16498,0.322754,-0.996704,-0.043335,5.004883,114.562981,75.317383
16515,0.318848,-0.918579,-0.050781,10.681151,96.191399,82.031242
16532,0.322632,-0.870728,-0.071655,12.20703,88.256828,83.312981
16548,0.377808,-0.800537,-0.118896,4.272461,84.83886,84.655754
16565,0.411133,-0.757812,-0.130615,2.441406,70.556641,85.083
16581,0.473389,-0.697632,-0.14856,7.8125,59.448238,82.641594
16598,0.502075,-0.705566,-0.141724,20.446775,35.217285,73.059082
16615,0.523315,-0.714233,-0.132324,24.353025,16.601562,64.453125
16632,0.580811,-0.70459,-0.100098,22.216795,9.58252,62.316891
16648,0.616577,-0.687744,-0.063721,18.432617,0.366211,60.729977
16665,0.632446,-0.676636,-0.05481,14.343261,-2.746582,56.640621
16681,0.652954,-0.66687,-0.05249,12.512206,-3.234863,51.330563
16698,0.689575,-0.669922,-0.062988,7.141113,-5.004883,35.827637
16715,0.702271,-0.691406,-0.058838,10.131835,-10.864257,24.841307
16732,0.724121,-0.714355,-0.052002,10.681151,-13.793944,23.742674
16748,0.72876,-0.698242,-0.055786,5.676269,-21.057127,24.04785
16765,0.717163,-0.686523,-0.052368,9.338379,-29.96826,20.568846
16782,0.695435,-0.687012,-0.027954,13.610839,-31.86035,17.76123
16799,0.706421,-0.687622,-0.007813,13.732909,-32.470703,13.183593
16816,0.708862,-0.692139,0.000977,12.023925,-35.400391,11.96289
16832,0.682983,-0.716675,0.039185,12.329101,-35.461426,13.305663
16849,0.669922,-0.706787,0.06543,6.652832,-27.343748,17.150879
16865,0.675903,-0.69165,0.064087,-4.760742,-17.883301,15.075683
16882,0.686279,-0.675903,0.051636,-6.408691,-15.258788,11.474608
16899,0.71875,-0.678711,0.054932,-2.502441,-13.427733,3.173828
16915,0.725342,-0.692627,0.060425,1.586914,-14.404296,0.671387
16932,0.712646,-0.709839,0.056396,1.89209,-14.404296,0.732422
16949,0.706421,-0.713135,0.050781,-1.098633,-14.404296,-0.732422
16965,0.706787,-0.720947,0.053711,-2.319336,-15.86914,-1.342773
16982,0.703491,-0.735596,0.069702,-4.211426,-17.272949,-0.976562
16999,0.696655,-0.724976,0.086792,-15.380858,-22.521971,-3.967285
17016,0.697021,-0.721069,0.093384,-33.081055,-32.653809,-15.197753
17032,0.700562,-0.730957,0.090942,-45.410152,-41.320797,-23.437498
17049,0.642456,-0.746582,0.241089,-76.293945,-62.19482,-40.039062
17066,0.592773,-0.786499,0.293945,-71.289062,-45.349117,-46.813961
17083,0.45752,-0.98584,0.370972,-55.908199,-18.798828,-41.503902
17100,0.377197,-1.246704,0.584595,-36.315918,74.035645,-11.901855
17116,0.353149,-1.322632,0.65564,-46.691891,227.783188,40.40527
17133,0.491577,-1.168701,0.412476,-56.884762,299.682617,70.556641
17149,0.562622,-0.99707,0.359375,-54.870602,376.892059,115.112297
17166,0.59082,-0.876221,0.321899,2.319336,424.072235,143.249512
17182,0.584717,-0.895996,-0.071167,-4.699707,438.354462,157.409668
17199,0.630981,-0.786255,-0.328491,-72.20459,408.752411,184.204086
17215,0.643066,-0.574829,-0.699707,-80.26123,365.661591,193.115219
17232,0.531982,-0.468506,-0.789185,-20.080564,257.141113,190.673813
17249,0.480469,-0.428345,-0.840332,32.226562,157.836914,167.236313
17265,0.409668,-0.301025,-1.087402,35.827637,110.29052,151.000977
17282,0.465576,-0.254028,-1.315186,14.526366,-1.953125,111.755363
17298,0.528076,-0.241455,-1.369751,-0.549316,-145.751953,80.93261
17315,0.626709,-0.214233,-1.32959,-5.859375,-224.975571,72.814941
17331,0.64978,-0.216797,-1.040771,-11.657714,-372.558563,63.171383
17348,0.682129,-0.226807,-0.965088,11.901855,-506.347626,49.926754
17364,0.624023,-0.133789,-0.701172,40.893551,-580.810547,44.250484
17381,0.476807,-0.0448,-0.509277,130.432129,-719.848572,21.240232
17397,0.287109,0.040405,-0.116089,160.766586,-776.550232,-3.051758
17413,0.132812,-0.119751,0.123291,124.694817,-864.257751,-56.213375
17430,-0.062378,-0.524658,0.231445,122.863762,-910.217224,-14.160155
17446,-0.625977,-1.579102,0.649658,86.85302,-893.981873,68.17627
17463,-1.661499,-2.051392,1.12793,-162.902817,-787.353455,292.663574
17480,-1.740845,-1.309204,1.355469,-208.251938,-635.864258,444.274872
17496,-0.932495,0.223389,2.328125,-78.552246,-524.475098,435.974091
17513,-0.679932,-0.22644,2.515869,155.761719,-172.241196,409.667938
17530,-0.711426,-0.325317,2.089722,260.375977,172.607407,466.369598
17546,-0.354248,-0.130981,1.470337,302.978516,277.22168,503.356903
17562,-0.164795,0.005981,1.172974,400.634735,415.466278,545.410156
17579,0.005981,0.015259,0.639038,457.15329,476.80661,545.471191
17595,0.047363,0.064819,0.493286,461.852997,485.290497,526.550293
17612,0.032959,0.052612,0.533325,447.509735,497.253387,435.85202
17628,0.0271,-0.208984,0.535278,411.193817,502.563446,371.765106
17645,0.196045,-0.302734,0.391968,270.385742,492.248505,214.233383
17661,0.247925,-0.294067,0.268066,113.220207,461.547821,35.583496
17678,0.233032,-0.395874,-0.067017,20.751951,444.519012,-36.804199
17695,0.227295,-0.450684,-0.347046,-224.060043,407.226532,-131.103516
17711,0.216797,-0.480957,-0.484253,-448.242157,374.572723,-208.679184
17728,0.202026,-0.703125,-0.721069,-532.775879,360.107391,-254.394516
17745,0.455688,-1.223633,-0.788086,-608.154297,314.51416,-327.392548
17762,0.617187,-1.345337,-0.752075,-559.570313,252.929672,-312.5
17779,0.713867,-1.429443,-0.60144,-515.50293,232.055649,-276.245117
17795,0.581909,-1.698364,-0.347534,-409.545868,188.720688,-127.990715
17812,0.364014,-1.58374,-0.167236,-260.925293,144.226074,53.588863
17829,0.230225,-1.264404,0.132324,-193.054184,133.605957,83.312981
17846,0.397827,-1.361816,0.172607,-107.482903,146.179199,48.095699
17863,0.411621,-1.404053,0.114746,-95.886223,161.926254,30.944822
17879,0.340454,-1.292236,0.018066,-99.060051,161.926254,34.545898
17896,0.339722,-1.17688,-0.068237,-80.200195,153.564453,46.874996
17912,0.351929,-1.12439,-0.099976,-29.785154,139.038086,64.331055
17929,0.37085,-0.988647,-0.138916,-2.807617,130.004883,70.739746
17946,0.397827,-0.915649,-0.162231,37.780762,112.243645,74.768066
17962,0.404785,-0.897217,-0.170776,46.081539,93.688957,76.049805
17979,0.425903,-0.868652,-0.197144,41.564938,85.144035,78.979492
17995,0.459351,-0.756348,-0.201782,29.113768,71.838379,88.256828
18012,0.473999,-0.696411,-0.210937,22.27783,61.95068,91.369621
18028,0.512939,-0.629883,-0.22583,24.16992,56.640621,89.965813
18045,0.547729,-0.610229,-0.22998,23.864744,42.968746,81.726067
18062,0.617554,-0.559814,-0.223145,19.592285,23.498533,66.40625
18078,0.673096,-0.534058,-0.204102,24.414061,15.686034,58.593746
18095,0.692383,-0.544556,-0.207153,28.442381,5.676269,46.203609
18111,0.703003,-0.573364,-0.196899,28.869627,1.281738,39.978027
18128,0.721436,-0.601929,-0.19873,30.2124,-3.051758,25.573729
18145,0.744751,-0.611938,-0.202515,19.104004,-8.056641,11.413573
18161,0.783569,-0.634766,-0.199951,16.174316,-14.526366,7.019042
18178,0.794434,-0.655273,-0.17334,16.296387,-30.761717,3.90625
18195,0.791016,-0.662109,-0.151611,12.573241,-47.119137,2.502441
18212,0.756714,-0.685669,-0.089966,11.352538,-53.283688,1.831055
18229,0.721436,-0.707153,-0.036865,11.718749,-54.809566,2.990722
18246,0.709351,-0.720215,-0.020386,6.774902,-46.691891,7.019042
18262,0.718994,-0.731201,0.005127,2.868652,-42.480465,8.911133
18279,0.736328,-0.72644,0.028931,-4.821777,-36.682129,12.573241
18296,0.739014,-0.716309,0.029419,-10.437011,-31.555174,15.747069
18312,0.73877,-0.685669,0.018433,-10.437011,-28.991697,15.808105
18329,0.757324,-0.6604,0.00708,-3.784179,-25.329588,13.305663
18346,0.767944,-0.65564,0.004517,7.751464,-26.611326,10.498046
18362,0.78833,-0.653198,0.00647,13.061522,-30.029295,9.521484
18379,0.788574,-0.649292,0.002441,19.53125,-40.893551,7.019042
18395,0.78125,-0.65332,-0.00293,20.38574,-52.001949,3.540039
18412,0.760742,-0.675049,-0.003418,18.249512,-56.335445,2.441406
18429,0.741577,-0.682983,0.008545,8.544922,-61.279293,3.540039
18446,0.733765,-0.670044,0.014282,-1.159668,-58.776852,7.385253
18462,0.719482,-0.63208,0.021851,-3.417969,-54.992672,8.972168
18479,0.720947,-0.606934,0.03186,-1.708984,-45.349117,8.666992
18496,0.729858,-0.602417,0.03772,3.662109,-38.269043,5.126953
18513,0.741577,-0.612915,0.052734,5.737304,-36.865234,2.868652
18529,0.748535,-0.636353,0.068359,6.408691,-38.146973,-2.563476
18546,0.748169,-0.647095,0.07666,1.586914,-43.640133,-8.361816
18562,0.728638,-0.663452,0.10083,-2.13623,-47.790524,-12.756347
18580,0.696533,-0.671143,0.149536,-16.967773,-59.448238,-32.714844
18596,0.673706,-0.668091,0.219482,-63.84277,-70.678711,-72.937012
18613,0.625366,-0.751953,0.436646,-85.937492,-64.086914,-93.322746
18630,0.37854,-1.012939,0.691772,-69.702148,6.652832,-95.825188
18647,0.169556,-1.238281,0.811157,-28.991697,212.646469,-49.560543
18663,0.141357,-1.538574,0.526489,-33.630371,338.19577,-13.427733
18680,0.485352,-1.17749,0.090576,-127.136223,486.999481,67.810059
18697,0.60376,-0.956665,-0.00061,-165.100082,500.183075,102.294914
18713,0.623047,-0.83374,-0.06897,-117.553703,490.783661,111.022942
18730,0.574585,-0.848022,-0.151733,-36.254883,477.477997,138.671875
18746,0.45105,-0.668457,-0.438599,-24.29199,461.669891,158.203125
18763,0.272339,-0.513306,-0.820923,-11.901855,442.138641,158.874512
18780,0.265625,-0.501953,-1.047119,30.578611,362.853973,146.850586
18797,0.462769,-0.495605,-1.476196,48.278805,212.707504,138.427734
18814,0.544312,-0.45459,-1.655518,40.588375,115.234367,139.770508
18830,0.487915,-0.404053,-1.631348,4.089355,-80.688469,142.333984
18847,0.395386,-0.230713,-1.460327,-6.958007,-168.701157,135.742187
18863,0.371948,-0.146484,-1.259766,-2.502441,-320.617676,104.125969
18880,0.388184,-0.142822,-1.074707,18.127441,-442.626923,65.490723
18896,0.50708,-0.205688,-0.755981,27.343748,-497.009247,50.109859
18913,0.524292,-0.21875,-0.581909,51.696774,-628.723145,41.442867
18930,0.301514,-0.110596,-0.453613,118.10302,-779.479919,39.855957
18947,-0.086792,0.16333,-0.200195,165.405258,-840.393005,14.648437
18964,-0.168457,-0.075317,0.01062,188.720688,-925.048767,-57.006832
18981,-0.273804,-0.531738,0.077271,167.846664,-947.81488,-10.498046
18997,-0.726685,-1.446777,0.520996,138.122559,-917.602478,78.308105
19014,-1.514648,-2.030762,0.890137,-41.992184,-769.8974,305.664062
19031,-1.63562,-1.68457,0.904175,-149.536133,-653.869568,504.699677
19048,-0.884155,0.026733,1.750977,-49.560543,-606.506348,523.498535
19064,-0.5354,-0.328125,2.536133,177.490219,-358.703583,476.501434
19081,-0.649902,-0.425415,2.465332,274.780273,21.789549,506.591766
19098,-0.460083,-0.172241,1.849121,324.46286,176.818832,526.245117
19115,-0.075806,-0.116699,1.279541,418.395966,380.432098,549.377441
19132,-0.001953,-0.154663,0.988647,451.599091,501.281708,544.86084
19149,0.03418,-0.170288,0.704956,441.223114,540.161133,521.911621
19165,0.013672,-0.237793,0.568848,382.812469,607.299805,410.583466
19182,0.053345,-0.349487,0.473877,224.73143,649.047791,255.554184
19198,0.264771,-0.432495,0.190063,109.497063,647.766052,169.738754
19215,0.300293,-0.526489,-0.144043,-141.967773,594.421387,-27.587889
19231,0.21936,-0.634033,-0.289063,-352.233856,521.057129,-200.622543
19248,-0.011841,-0.764648,-0.604858,-455.993622,485.839813,-271.362305
19264,-0.06189,-1.15332,-0.76123,-639.709473,395.202606,-393.981903
19281,0.04834,-1.297119,-0.710937,-570.739746,278.137207,-405.456512
19298,0.193237,-1.342041,-0.597534,-464.050262,232.055649,-359.191864
19315,0.077637,-1.626953,-0.220215,-298.706055,207.519516,-153.076172
19331,-0.203735,-1.816772,-0.109375,-209.777817,233.703598,85.20507
19348,-0.349243,-1.73938,0.069458,-156.12793,242.492661,137.817383
19365,0.248901,-1.255127,-0.168823,-142.578125,254.699692,113.891594
19382,0.393066,-1.213867,-0.176636,-219.848618,247.802719,76.23291
19399,0.443237,-1.236084,-0.128662,-212.402328,242.37059,77.880859
19415,0.473267,-1.25,-0.090942,-103.149406,219.299301,101.867668
19432,0.468994,-1.22876,-0.107178,-20.26367,180.053696,124.1455
19448,0.420288,-1.098633,-0.197021,-14.09912,154.602051,125.976555
19465,0.398804,-1.04126,-0.13562,-9.70459,115.539543,114.562981
19482,0.392578,-0.908203,-0.062622,-0.610352,108.39843,98.57177
19499,0.384521,-0.865356,-0.146606,0.976562,102.905266,94.238274
19516,0.408813,-0.833374,-0.158203,7.202148,81.726067,91.552727
19532,0.427368,-0.799194,-0.16333,9.094238,61.767574,93.627922
19549,0.476685,-0.705811,-0.192139,11.901855,51.513668,93.994133
19565,0.511719,-0.663086,-0.196777,23.925779,27.526854,89.355461
19581,0.553101,-0.640625,-0.177979,30.639647,17.028809,86.181633
19598,0.586914,-0.603394,-0.185913,31.86035,4.211426,81.542961
19614,0.609985,-0.568115,-0.192871,21.545408,-2.929687,72.814941
19631,0.672607,-0.516357,-0.19519,18.188477,-6.958007,65.368652
19647,0.72583,-0.508545,-0.201172,14.160155,-16.906738,48.156734
19664,0.741699,-0.516724,-0.196533,14.22119,-27.160643,31.677244
19680,0.771606,-0.528687,-0.181274,14.770507,-31.86035,23.925779
19696,0.776733,-0.545166,-0.166626,22.033689,-39.245605,10.375976
19713,0.7771,-0.629395,-0.122559,26.977537,-40.161129,4.577637
19729,0.807251,-0.68811,-0.089111,20.935057,-40.40527,5.310058
19746,0.808228,-0.708984,-0.062378,7.93457,-45.410152,10.620116
19762,0.80603,-0.701904,-0.001221,3.967285,-46.630856,14.953612
19779,0.814941,-0.653198,0.02771,-1.831055,-46.264645,23.315428
19796,0.807251,-0.631348,0.043091,2.380371,-47.729488,23.681639
19812,0.777832,-0.614746,0.084229,9.399414,-46.44775,20.874022
19829,0.781128,-0.59668,0.099609,16.174316,-38.391113,12.512206
19846,0.778198,-0.604004,0.103394,17.272949,-27.648924,6.713867
19862,0.773804,-0.622925,0.0979,16.906738,-21.362303,5.798339
19879,0.785767,-0.634033,0.082275,10.559081,-10.681151,5.065917
19895,0.801758,-0.630737,0.076416,3.845215,-5.004883,7.568359
19912,0.816772,-0.601562,0.053833,1.098633,-4.211426,9.338379
19929,0.813721,-0.572266,0.031006,-4.333496,-5.554199,8.361816
19946,0.80835,-0.562988,0.024536,-4.333496,-8.117676,3.356933
19962,0.802856,-0.560181,0.017944,-1.708984,-9.094238,1.037598
19978,0.807983,-0.563965,0.016846,3.112793,-11.840819,-1.953125
19995,0.808594,-0.564941,0.005249,1.342773,-17.333984,-5.371093
20011,0.812378,-0.560425,-0.010376,-0.549316,-21.545408,-8.117676
20028,0.815186,-0.558472,-0.017334,-2.075195,-34.973145,-14.709472
20046,0.820679,-0.558838,-0.018677,1.525879,-55.969234,-23.803709
20062,0.816284,-0.567261,0.005737,3.173828,-69.030762,-30.395506
20079,0.803589,-0.577759,0.022827,-1.953125,-99.914543,-49.255367
20096,0.72937,-0.593384,0.128784,-33.874512,-129.577637,-79.345703
20113,0.578613,-0.647461,0.292603,-51.696774,-137.268066,-99.487297
20130,0.45874,-0.854248,0.237671,-58.654781,-137.268066,-139.709473
20147,0.455078,-1.03772,0.29895,-26.245115,-131.469727,-128.662109
20164,0.517944,-1.359985,0.696045,3.967285,-103.698723,-89.11132
20180,0.169067,-1.492065,1.239258,5.310058,71.594238,24.29199
20197,0.091064,-1.518677,1.072021,-80.078125,335.571259,85.815422
20213,0.232056,-1.307251,0.488892,-121.826164,422.973602,99.243156
20230,0.310791,-1.11792,0.283325,-147.033691,502.380341,106.994621
20246,0.399902,-0.859131,0.01123,-130.371094,514.343262,108.581535
20262,0.493774,-0.729004,-0.337036,-69.885254,505.248993,128.295898
20279,0.525757,-0.644775,-0.527466,-23.498533,444.091766,153.137207
20296,0.445801,-0.522827,-0.851807,-1.403808,400.512665,158.325195
20312,0.48999,-0.488281,-1.238037,59.93652,290.649414,158.325195
20329,0.526123,-0.432373,-1.366577,53.588863,133.483887,156.005859
20346,0.500488,-0.295288,-1.42688,28.381346,50.170895,152.587891
20362,0.476807,-0.253296,-1.4021,5.493164,-105.468742,138.122559
20378,0.476074,-0.237427,-1.354614,4.516602,-259.338379,116.08886
20395,0.474365,-0.198486,-1.039307,12.634276,-328.430145,105.895988
20412,0.630615,-0.149658,-0.698853,41.137691,-447.631805,97.656242
20429,0.653564,-0.10791,-0.567871,45.104977,-581.237793,104.49218
20446,0.330811,0.193237,-0.275024,59.265133,-654.113708,102.844231
20462,0.073486,0.269653,0.308472,182.983383,-781.249939,52.24609
20479,0.071655,0.163208,0.496948,233.520493,-843.017517,-21.972654
20495,-0.179321,-0.328125,0.51709,236.816391,-867.492615,-31.311033
20512,-0.261353,-0.749634,0.785278,214.416489,-845.825134,76.965332
20529,-0.894653,-1.820557,1.272827,30.395506,-609.313965,331.054657
20546,-1.845581,-1.705444,1.218994,-84.533684,-510.986298,445.67868
20563,-0.639038,0.114746,2.195068,-27.221678,-384.094208,452.087372
20580,-0.157471,0.049316,2.213135,210.388168,-114.990227,387.634247
20596,0.042236,-0.347168,1.721436,277.404785,13.122558,397.888153
20613,0.125854,-0.203247,1.589722,381.530731,189.331039,451.965302
20629,0.376953,-0.154541,1.325195,485.412567,299.01123,509.033173
20645,0.533569,-0.270142,1.001343,499.999969,329.650848,533.752441
20662,0.562744,-0.147705,0.912964,514.465332,367.187469,543.273926
20678,0.522827,0.152588,0.704468,539.0625,379.638641,520.507813
20695,0.54541,0.061646,0.555298,530.578613,382.019012,423.950165
20712,0.584106,-0.01355,0.542358,467.163055,355.71286,276.123047
20728,0.587646,-0.203003,0.4823,415.954559,343.811005,200.683578
20745,0.464233,-0.456421,0.220703,223.083481,347.351044,81.359856
20761,0.359375,-0.502075,0.054321,-35.583496,389.587372,8.178711
20778,0.10144,-0.456177,-0.293091,-185.424789,417.968719,-16.357422
20795,-0.069336,-0.44397,-0.676636,-472.412079,470.519989,-73.974609
20812,-0.088989,-0.474365,-0.83252,-638.366699,497.436493,-164.367661
20829,-0.021362,-0.652588,-0.985962,-666.747986,494.262665,-210.99852
20846,0.182617,-0.777954,-0.844604,-632.080078,439.147919,-261.962891
20863,0.232056,-0.772583,-0.831299,-427.185028,364.379852,-236.877426
20880,0.466675,-0.86731,-0.956543,-293.701172,317.321777,-193.6035
20897,0.189331,-1.450562,-0.658936,-35.949707,208.374008,-50.415035
20914,0.033569,-1.791748,-0.567017,132.202148,138.244629,61.767574
20930,0.081055,-1.787231,-0.549683,134.887695,123.535149,86.669914
20947,0.185669,-1.521362,-0.637939,-33.447266,121.765129,114.990227
20964,0.187744,-1.411377,-0.639404,-175.7202,137.329102,147.766113
20980,0.205566,-1.180298,-0.685913,-183.349594,142.211914,155.822754
20997,0.210571,-1.042603,-0.67749,-124.816887,131.408691,154.724121
21014,0.220459,-0.976685,-0.639282,-72.20459,105.895988,148.742676
21031,0.24646,-0.863159,-0.57251,-59.93652,92.468254,144.958496
21047,0.265991,-0.806641,-0.542114,-47.668453,65.673828,137.451172
21064,0.278931,-0.763794,-0.530151,-46.752926,38.635254,130.310059
21081,0.301758,-0.683838,-0.494629,-43.395992,26.000975,125.732414
21097,0.337769,-0.608154,-0.473511,-30.395506,7.446289,113.098137
21114,0.367188,-0.567505,-0.470581,-24.536131,-6.408691,91.186516
21131,0.436523,-0.555786,-0.449463,-19.348145,-12.817382,78.552246
21148,0.507935,-0.59375,-0.424683,-3.967285,-23.193357,59.326168
21165,0.541748,-0.604736,-0.414062,-2.746582,-32.226562,47.607418
21181,0.591431,-0.639771,-0.386353,-4.638672,-37.17041,42.602535
21198,0.631348,-0.684937,-0.350586,-7.873535,-45.104977,36.315918
21215,0.653931,-0.686401,-0.336182,-16.052246,-50.842281,33.38623
21231,0.671509,-0.678101,-0.294067,-17.76123,-53.222652,31.86035
21248,0.660034,-0.673218,-0.245483,-8.300781,-53.039547,27.465818
21265,0.647705,-0.679321,-0.227417,-0.427246,-45.166012,20.690916
21281,0.627686,-0.714844,-0.19751,1.281738,-39.794922,16.906738
21298,0.648437,-0.731445,-0.17981,-0.488281,-28.686522,13.061522
21315,0.653809,-0.728882,-0.171509,-3.479004,-22.15576,13.244628
21332,0.659058,-0.708862,-0.170776,-4.150391,-19.714355,13.244628
21349,0.675903,-0.703247,-0.168945,-2.319336,-17.63916,12.145995
21366,0.67749,-0.698975,-0.168945,2.441406,-17.333984,10.009766
21382,0.69043,-0.691528,-0.171753,2.929687,-16.723633,8.544922
21399,0.699341,-0.686157,-0.180664,0.976562,-15.197753,5.859375
21416,0.706787,-0.679321,-0.184692,-3.479004,-13.793944,4.455566
21432,0.716553,-0.665771,-0.188477,-4.699707,-14.038085,3.845215
21450,0.712891,-0.659302,-0.188843,-4.699707,-17.456055,0.244141
21466,0.709961,-0.662109,-0.18811,-3.479004,-22.888182,-5.737304
21483,0.711426,-0.673706,-0.17981,-3.90625,-26.30615,-8.666992
21500,0.712402,-0.68811,-0.169312,-10.437011,-35.522461,-14.09912
21517,0.71521,-0.703125,-0.164307,-23.803709,-50.23193,-19.165039
21534,0.713379,-0.741455,-0.145142,-31.86035,-60.424801,-21.667479
21551,0.658813,-0.780518,-0.092407,-49.926754,-84.594719,-30.700682
21568,0.61731,-0.817505,-0.046387,-57.373043,-106.62841,-48.278805
21585,0.566284,-0.855103,0.027466,-50.781246,-113.281242,-57.739254
21602,0.505737,-1.06665,0.100952,-28.19824,-113.037102,-65.795898
21619,0.463867,-1.218384,0.199219,-10.375976,-67.382812,-36.92627
21635,0.373779,-1.371704,0.375732,-21.667479,-13.122558,-6.469726
21652,0.19043,-1.342529,0.464966,-59.570309,149.230957,62.011715
21669,0.15564,-1.328613,0.345093,-80.383293,325.195282,116.45507
21685,0.250122,-1.152466,0.064697,-115.356438,381.225555,137.939453
21702,0.388672,-0.906982,-0.204834,-156.799316,435.241669,170.959457
21719,0.432007,-0.811523,-0.351196,-125.305168,436.340302,208.923325
21736,0.452515,-0.573853,-0.641235,-116.271965,422.424286,228.393539
21753,0.309082,-0.363159,-0.931519,-93.01757,380.371063,251.464828
21769,0.268921,-0.324707,-1.132202,0.976562,312.37793,252.136215
21786,0.44043,-0.34668,-1.669922,32.714844,244.750961,245.971664
21803,0.540527,-0.275391,-1.828979,0.610352,30.2124,220.82518
21820,0.52771,-0.175903,-1.68042,-41.992184,-199.951157,175.903305
21837,0.524048,-0.055664,-1.249756,-37.17041,-304.6875,147.155762
21853,0.536255,-0.120361,-0.751709,-12.145995,-479.125946,91.796867
21870,0.562866,-0.13501,-0.514648,47.119137,-617.980957,54.504391
21886,0.360718,0.065918,-0.232788,100.036613,-686.218201,41.687008
21903,-0.07312,0.1604,-0.033203,255.004868,-812.072693,1.708984
21920,-0.13916,0.12854,0.19043,319.824219,-913.146912,-51.574703
21936,-0.169922,-0.540771,0.714966,283.996582,-934.936462,-35.949707
21952,-0.689453,-2.112915,1.178711,210.510239,-808.593689,184.387192
21969,-1.353394,-2.626587,0.905151,77.697754,-595.397949,495.605438
21985,-1.339844,-1.180786,1.534058,56.396481,-554.382324,559.143066
22002,-0.727051,-0.343018,2.003418,204.711899,-393.310516,514.465332
22018,0.066528,-0.006226,2.226563,308.410645,-257.873535,474.609344
22034,0.268433,-0.304199,1.899414,454.528778,15.686034,451.415985
22051,0.288452,-0.396362,1.67334,513.73291,176.513657,493.102997
22067,0.322388,-0.413574,1.418579,506.347626,217.773422,519.226074
22084,0.330322,-0.27124,1.134277,461.364716,273.132324,513.793945
22100,0.355347,-0.25293,1.024902,417.175262,305.541992,425.842255
22117,0.413574,-0.229736,0.805054,371.33786,320.19043,371.093719
22133,0.462646,-0.165527,0.51062,260.009766,344.421356,255.85936
22150,0.491211,-0.153687,0.380371,159.301758,352.477997,137.817383
22167,0.486206,-0.215576,0.148926,119.873039,357.360809,80.627434
22183,0.436523,-0.283203,0.008545,14.282226,388.915985,-16.174316
22200,0.21167,-0.457764,-0.307251,-188.415512,449.645966,-94.177238
22217,-0.05603,-0.647949,-0.652344,-316.40625,481.079071,-128.601074
22234,-0.096191,-0.935303,-0.969116,-604.248047,507.202118,-200.927719
22251,-0.001343,-1.089478,-1.047485,-748.535095,472.961395,-259.58252
22268,0.191895,-1.091797,-1.079956,-704.040466,453.613251,-261.169434
22285,0.28772,-1.298584,-0.959351,-535.949707,413.330048,-180.236801
22302,0.146484,-1.527832,-0.749756,-437.255829,344.604462,31.005857
22319,-0.247925,-1.332886,-0.522705,-394.89743,311.340332,127.258293
22336,0.117798,-0.879395,-0.371216,-315.917969,247.802719,175.231918
22353,0.39856,-0.818848,-0.280396,-266.418457,223.266586,111.145012
22370,0.729614,-0.91272,-0.28894,-272.399902,217.529282,82.885735
22386,0.744507,-0.959717,-0.19812,-235.046371,184.448227,58.959957
22403,0.744751,-0.991455,-0.158447,-96.191399,144.53125,58.715816
22420,0.74353,-1.047119,-0.189819,-39.794922,119.812004,61.645504
22436,0.669922,-1.047363,-0.136475,-4.150391,57.556149,62.988277
22453,0.609741,-0.995483,-0.038208,24.719236,23.986814,49.987789
22470,0.510986,-0.984131,-0.003174,31.311033,21.728514,44.372555
22486,0.459351,-0.997192,-0.011841,15.624999,23.315428,43.212887
22503,0.445923,-0.979492,-0.017578,-11.718749,33.813477,51.696774
22519,0.454468,-0.873901,-0.067993,-22.460936,40.893551,55.297848
22537,0.499146,-0.765869,-0.109375,-19.348145,48.21777,56.640621
22554,0.527466,-0.746094,-0.126587,7.873535,48.278805,56.823727
22570,0.590332,-0.726807,-0.166748,17.700195,44.982906,57.678219
22587,0.626099,-0.724609,-0.161621,31.311033,30.700682,57.006832
22604,0.6427,-0.74231,-0.152344,30.395506,20.26367,60.05859
22621,0.682983,-0.692627,-0.155029,16.784668,16.296387,62.744137
22638,0.719238,-0.583984,-0.157227,-3.845215,6.04248,62.927242
22654,0.737061,-0.546875,-0.158813,1.098633,-4.333496,54.687496
22671,0.762329,-0.510376,-0.153809,6.958007,-10.19287,47.790524
22688,0.771851,-0.508423,-0.138428,22.583006,-22.3999,30.273436
22705,0.781494,-0.51355,-0.128784,34.362793,-32.775879,12.573241
22722,0.786011,-0.565796,-0.092651,39.489746,-37.04834,6.835937
22738,0.767822,-0.651855,-0.042847,40.832516,-40.710445,3.845215
22755,0.759033,-0.679932,-0.027466,17.76123,-36.92627,8.422852
22772,0.758057,-0.669556,-0.002197,3.417969,-33.935547,11.291503
22789,0.76709,-0.621948,0.028076,-11.779784,-27.832029,15.99121
22806,0.769287,-0.60376,0.037354,-11.474608,-22.766111,14.709472
22823,0.775269,-0.598511,0.044067,-8.544922,-20.812986,11.230468
22839,0.787231,-0.621582,0.049194,-1.037598,-19.226074,3.356933
22856,0.785889,-0.63269,0.054077,5.065917,-20.568846,-1.953125
22873,0.772095,-0.662842,0.065674,7.507324,-20.446775,-3.723144
22890,0.768555,-0.673584,0.0625,7.93457,-16.662598,-5.249023
22907,0.772583,-0.684082,0.065674,8.178711,-10.864257,-2.13623
22923,0.766968,-0.691895,0.060791,5.493164,-7.446289,0.793457
22940,0.772095,-0.663696,0.041992,-5.187988,-1.159668,4.577637
22957,0.771973,-0.650757,0.03125,-9.033203,1.708984,4.394531
22974,0.770508,-0.63208,0.013794,-8.178711,2.563476,3.479004
22991,0.766357,-0.62207,0.003174,-2.929687,2.13623,0.854492
23008,0.765381,-0.619263,-0.005127,3.723144,0.061035,-2.868652
23024,0.768555,-0.622681,-0.017822,6.408691,-1.464844,-4.455566
23041,0.760742,-0.633667,-0.025757,10.681151,-5.676269,-7.629394
23058,0.758667,-0.648437,-0.026489,10.31494,-9.033203,-9.155273
23075,0.753418,-0.66394,-0.029175,6.835937,-10.19287,-8.239746
23092,0.760498,-0.651123,-0.029053,-2.624511,-13.916015,-6.591796
23109,0.765625,-0.647949,-0.026001,-10.498046,-22.949217,-9.399414
23126,0.78479,-0.692505,0.008545,-31.555174,-40.52734,-17.63916
23143,0.769409,-0.832886,0.128052,-55.236813,-51.147457,-21.301268
23160,0.571045,-1.147583,0.388916,-162.658676,-52.734371,-20.568846
23177,0.405273,-1.230957,0.498657,-294.555664,30.456541,0.12207
23194,0.2052,-1.000366,0.653931,-303.222656,113.098137,17.456055
23210,0.262695,-0.823608,0.628784,-196.228012,309.997559,43.640133
23227,0.758301,-0.879272,0.36853,-83.19091,421.813934,94.543449
23244,1.003296,-0.785034,0.342529,-81.542961,423.583954,116.760246
23260,0.907227,-0.665283,0.343018,-75.866699,421.508759,104.73632
23277,0.675049,-0.594482,-0.053223,-114.19677,440.795868,80.26123
23294,0.49646,-0.459229,-0.61731,-116.149895,433.71579,64.453125
23311,0.449097,-0.496826,-0.779175,-14.953612,368.774384,18.859863
23328,0.463745,-0.674683,-1.13623,100.036613,249.023422,13.916015
23345,0.478638,-0.697388,-1.488647,117.309563,168.457016,29.785154
23361,0.378906,-0.654907,-1.50354,75.317383,-9.643555,70.43457
23378,0.352295,-0.580444,-1.451416,44.494625,-169.311508,104.73632
23395,0.383179,-0.436768,-1.33728,43.579098,-240.844711,115.661613
23412,0.457764,-0.405029,-1.140381,44.921871,-374.694794,128.540039
23429,0.513672,-0.33374,-1.050293,72.32666,-519.470215,129.02832
23445,0.499878,-0.071167,-0.891235,99.975578,-603.027344,119.201653
23462,0.334961,0.119141,-0.70459,221.130356,-766.357361,70.068359
23479,0.102905,0.373047,-0.308472,293.273926,-879.821716,-20.935057
23495,0.021362,-0.029785,0.002441,254.272446,-921.691833,-50.048824
23512,-0.15918,-0.591553,0.399902,187.43895,-957.031189,29.541014
23529,-0.820557,-2.42688,1.221191,72.570801,-760.803162,366.394012
23545,-1.94165,-1.887329,0.86438,-48.522945,-660.5224,523.376465
23562,-1.67627,-0.425781,1.516724,6.103515,-521.911621,546.875
23579,-0.553101,0.679565,2.66333,379.638641,-191.284164,416.015594
23595,-0.220825,-0.431152,2.213501,505.981415,2.319336,392.150848
23612,-0.280151,-0.636719,1.826172,544.128418,263.61084,456.298798
23629,-0.227661,-0.244507,1.334473,512.390137,339.599579,497.924774
23645,0.026001,0.076904,0.88269,510.436981,435.60788,481.689423
23662,0.146729,0.083984,0.72168,496.520966,471.923798,393.859833
23679,0.356201,0.0271,0.491943,461.730927,472.656219,343.078583
23695,0.511597,-0.050293,0.397705,370.300262,448.791473,236.32811
23711,0.509399,-0.207275,0.309326,250.915512,444.457977,129.455566
23728,0.378906,-0.691162,-0.001587,132.446289,453.735321,76.538086
23745,0.171631,-0.877441,-0.369873,-277.160645,475.646942,-4.516602
23762,0.099731,-0.754639,-0.629761,-714.782654,480.163544,-75.561523
23779,0.095825,-0.687012,-1.13501,-875.305115,467.834442,-127.258293
23796,0.385132,-1.082397,-1.06543,-1039.001465,380.981415,-250.732407
23813,0.54248,-1.315308,-0.871216,-893.371521,214.90477,-268.188477
23829,0.693359,-1.155396,-0.496094,-766.357361,140.075684,-217.773422
23846,0.369141,-1.117798,0.338623,-519.226074,75.073242,-79.956055
23863,0.198242,-1.338257,0.454102,-306.091309,123.535149,26.245115
23880,0.392944,-1.091675,0.373901,-225.707993,125.91552,51.635738
23896,0.645996,-0.80249,0.626831,-151.794434,93.688957,15.319823
23912,0.66626,-0.959473,0.689697,-114.135735,104.064934,-27.099607
23929,0.618164,-1.266235,0.55603,-83.557121,113.464348,-19.104004
23945,0.602295,-1.25354,0.494385,-11.779784,110.900871,16.296387
23962,0.585083,-1.198364,0.473389,34.667969,105.957024,35.522461
23979,0.528442,-1.041382,0.37146,44.799801,108.215324,36.987305
23996,0.478149,-0.954956,0.294678,42.846676,116.699211,32.653809
24012,0.449341,-0.937256,0.27002,38.879395,129.943848,36.315918
24028,0.440063,-0.868286,0.168457,38.085937,136.901855,40.52734
24045,0.458374,-0.820923,0.116943,38.391113,137.634277,44.799801
24062,0.503296,-0.752563,0.051147,49.926754,127.197258,48.46191
24079,0.565186,-0.707764,-0.054687,52.185055,118.896477,50.903316
24096,0.589233,-0.685913,-0.082275,58.349606,92.834465,52.551266
24112,0.62207,-0.675171,-0.102417,62.011715,72.20459,57.189938
24128,0.668701,-0.625732,-0.138672,54.077145,62.927242,59.204098
24145,0.681396,-0.584839,-0.141479,45.288082,43.395992,55.847164
24162,0.719604,-0.530273,-0.146973,44.616695,35.888672,50.659176
24178,0.764893,-0.493652,-0.151123,46.56982,23.315428,36.499023
24194,0.788208,-0.508789,-0.15625,53.955074,10.375976,25.878904
24211,0.799438,-0.545776,-0.145142,55.786129,2.441406,21.911619
24227,0.788208,-0.581421,-0.127441,57.983395,-8.300781,15.258788
24244,0.791748,-0.597412,-0.125488,42.297359,-10.803222,12.023925
24260,0.786987,-0.639771,-0.101929,32.531738,-11.108397,12.878417
24277,0.787964,-0.63147,-0.091919,9.94873,-6.530761,20.507811
24293,0.791626,-0.565674,-0.108643,0.244141,-3.295898,23.742674
24310,0.803711,-0.519287,-0.125488,-5.432128,-1.342773,21.057127
24326,0.807373,-0.518921,-0.126709,2.807617,-5.737304,10.620116
24343,0.821655,-0.529297,-0.125977,6.469726,-9.277344,6.04248
24360,0.821533,-0.543213,-0.117798,11.535644,-20.507811,-1.159668
24377,0.808105,-0.560059,-0.097656,18.249512,-32.104492,-6.958007
24394,0.779663,-0.611084,-0.049438,16.967773,-33.630371,-6.835937
24411,0.766724,-0.620483,-0.027954,12.817382,-31.494139,-5.249023
24428,0.764648,-0.612305,-0.028687,7.629394,-24.902342,-2.685547
24445,0.783813,-0.598877,-0.030396,9.216309,-20.1416,-2.197266
24462,0.807373,-0.615845,-0.030029,9.70459,-19.042969,-1.403808
24479,0.820435,-0.612305,-0.038086,4.638672,-19.165039,1.220703
24495,0.831055,-0.595337,-0.044556,-2.807617,-23.864744,2.075195
24512,0.853882,-0.564087,-0.057983,-4.333496,-28.381346,1.708984
24529,0.861816,-0.55542,-0.062378,-3.784179,-42.175289,-0.671387
24546,0.866577,-0.590332,-0.054199,-4.760742,-61.706539,-1.159668
24562,0.862183,-0.64978,-0.02417,-8.911133,-72.753906,1.525879
24579,0.852783,-0.670288,-0.000122,-26.000975,-97.228996,9.155273
24596,0.823975,-0.704346,0.085083,-55.786129,-128.173828,4.638672
24612,0.750122,-0.72937,0.282349,-87.280266,-141.113281,-4.333496
24629,0.679199,-0.769531,0.424805,-158.508301,-130.554199,-20.690916
24646,0.506714,-0.85376,0.602295,-167.968735,-42.053219,-16.357422
24663,0.37085,-0.897949,0.90686,-150.57373,33.996582,-5.981445
24680,0.327393,-0.953247,0.947144,-80.993645,250.427231,15.747069
24697,0.501953,-1.031616,0.478149,-102.233879,382.507294,42.724606
24713,0.734253,-0.795776,0.304199,-116.21093,401.245087,49.255367
24729,0.753052,-0.645752,0.258179,-44.31152,417.419403,56.457516
24746,0.605347,-0.577393,0.005371,-22.827147,426.14743,61.279293
24762,0.456909,-0.515747,-0.435669,-20.38574,428.894012,64.147949
24779,0.421387,-0.435913,-0.6604,12.512206,384.277313,40.161129
24796,0.47583,-0.525146,-1.108032,31.555174,338.134735,28.808592
24813,0.638916,-0.664062,-1.521973,76.171875,186.889633,41.259762
24830,0.668945,-0.609009,-1.61792,57.739254,-30.09033,83.557121
24846,0.581665,-0.443726,-1.449341,27.465818,-137.268066,103.637688
24863,0.51355,-0.226562,-1.171265,6.16455,-304.138184,122.070305
24879,0.532349,-0.171021,-1.055786,37.658691,-409.912079,105.163567
24896,0.710693,-0.084839,-0.900879,55.847164,-463.256805,92.163078
24913,0.634033,0.091675,-0.640747,114.135735,-603.881836,71.166992
24929,0.438965,0.155396,-0.45166,256.530762,-737.792908,18.005371
24946,0.145386,0.186768,-0.041992,299.987793,-780.273376,-20.1416
24962,0.066895,0.129272,0.123413,210.571274,-838.684021,-69.335937
24979,-0.203491,-0.557617,0.47937,170.104965,-849.792419,2.502441
24996,-0.668457,-1.562012,1.140381,159.240723,-796.386658,100.83007
25012,-0.942139,-1.732056,1.424072,124.389641,-568.54248,306.945801
25029,-1.00293,-1.345337,1.654907,74.279785,-354.980438,405.151337
25045,-0.412476,-0.490112,1.726685,98.144524,-275.878906,413.818329
25062,0.015015,-0.244873,1.752808,244.018539,-115.844719,385.375946
25078,0.356689,-0.373413,1.616577,317.382812,-29.235838,384.338348
25095,0.442505,-0.439941,1.360352,408.569305,108.764641,426.757782
25112,0.480225,-0.342896,1.218384,480.529755,203.857407,464.172333
25128,0.583984,-0.116333,0.858032,526.367188,241.699203,462.585419
25145,0.62561,-0.043457,0.550537,605.59082,288.330078,431.030243
25162,0.589111,-0.072876,0.456177,618.896484,305.297852,376.403778
25179,0.486694,-0.185181,0.480957,594.238281,304.321289,332.946747
25195,0.336182,-0.520142,0.571289,469.055145,327.514618,201.354965
25212,0.2229,-0.643799,0.481567,165.832504,404.540985,64.147949
25229,0.024048,-0.675293,0.10437,-18.859863,444.030731,15.319823
25245,-0.086304,-0.550659,-0.332397,-330.078094,497.558563,-36.987305
25262,-0.114868,-0.532104,-0.559692,-566.589355,523.4375,-90.148918
25279,-0.16272,-0.7052,-0.967896,-672.24115,530.456543,-128.540039
25295,-0.006958,-0.984375,-1.033081,-752.38031,502.990692,-213.01268
25312,0.138184,-0.968262,-0.983643,-571.411133,415.405243,-233.764633
25329,0.425293,-0.82666,-0.886597,-461.364716,370.056122,-206.787094
25346,0.371338,-1.336182,-0.400391,-273.925781,275.45166,-102.294914
25363,0.212158,-1.799072,-0.15564,-71.533203,207.458481,16.418457
25379,0.083496,-1.973877,-0.087769,21.484373,197.26561,61.767574
25396,0.225952,-1.622192,-0.418579,-2.563476,183.166489,110.839836
25412,0.246704,-1.64502,-0.424927,-117.065422,152.648926,144.348145
25429,0.215698,-1.513184,-0.353271,-128.295898,141.540527,158.447266
25446,0.234985,-1.187012,-0.347168,-110.473625,132.202148,165.222153
25463,0.244385,-1.098022,-0.381714,-91.735832,127.441399,154.663086
25479,0.274902,-0.915283,-0.39917,-80.688469,120.666496,147.460937
25496,0.299561,-0.813965,-0.368042,-45.532223,102.294914,129.882812
25513,0.295532,-0.803589,-0.358154,-10.131835,82.519524,114.685051
25530,0.307983,-0.784546,-0.32312,0.488281,74.157715,108.947746
25546,0.357056,-0.726807,-0.338989,-6.591796,61.828609,103.759758
25563,0.380127,-0.692139,-0.344849,-16.662598,47.668453,100.708
25580,0.449707,-0.651245,-0.333008,-11.840819,40.344234,98.388664
25596,0.489746,-0.641602,-0.317871,4.821777,27.770994,94.604485
25613,0.55835,-0.649414,-0.286377,12.573241,18.798828,91.735832
25629,0.630493,-0.595947,-0.279175,9.643555,15.380858,88.806145
25646,0.646484,-0.572144,-0.276855,6.591796,10.986327,76.599121
25662,0.678223,-0.556152,-0.290039,4.699707,10.620116,68.481445
25679,0.701172,-0.546753,-0.297607,2.380371,9.643555,51.574703
25695,0.721436,-0.553955,-0.298096,8.972168,7.690429,38.085937
25712,0.762207,-0.569824,-0.30188,9.399414,4.577637,33.14209
25728,0.761597,-0.611328,-0.283081,7.93457,-6.347656,24.780272
25745,0.762085,-0.617065,-0.277466,-5.126953,-17.089844,18.432617
25762,0.755127,-0.614014,-0.270142,-11.474608,-23.132322,15.136718
25779,0.762207,-0.5979,-0.247925,-12.145995,-35.522461,7.93457
25796,0.753052,-0.597168,-0.222778,3.112793,-43.457027,2.380371
25813,0.719727,-0.641113,-0.16333,11.657714,-42.846676,0.549316
25830,0.682251,-0.686035,-0.134766,16.296387,-32.958984,-1.281738
25846,0.671265,-0.708374,-0.130737,8.911133,-16.235352,-0.854492
25863,0.690796,-0.722046,-0.15332,1.953125,-8.056641,1.037598
25880,0.711792,-0.721558,-0.17688,-3.967285,0.366211,6.408691
25897,0.717163,-0.712524,-0.188354,-2.990722,0.793457,9.887695
25913,0.743164,-0.68042,-0.196289,-2.563476,-1.342773,10.375976
25930,0.743652,-0.646606,-0.190674,2.197266,-8.056641,9.887695
25947,0.737915,-0.636597,-0.188354,7.385253,-11.718749,6.347656
25964,0.739746,-0.6427,-0.182861,8.239746,-12.329101,4.333496
25980,0.743042,-0.627686,-0.199951,3.784179,-12.390136,1.342773
25997,0.744019,-0.616455,-0.212158,0.915527,-13.671874,-1.831055
26013,0.753784,-0.59375,-0.234741,1.464844,-15.747069,-3.967285
26030,0.773437,-0.598755,-0.241089,4.821777,-24.353025,-8.605957
26046,0.789062,-0.612793,-0.234619,0.976562,-43.518063,-15.808105
26063,0.83606,-0.640015,-0.210449,-12.20703,-58.410641,-21.362303
26080,0.776611,-0.663208,-0.121338,-58.593746,-97.656242,-36.92627
26097,0.655029,-0.672363,-0.016357,-110.961906,-114.379875,-55.603024
26114,0.350586,-0.769409,0.184937,-116.638176,-90.087883,-63.96484
26131,0.33252,-1.12085,0.475342,-73.059082,21.972654,-61.035152
26147,0.421631,-1.307251,0.638184,9.460449,189.331039,24.536131
26164,0.568481,-1.372925,0.430664,-15.808105,261.047363,87.951653
26180,0.604858,-1.059326,0.133301,-135.498047,332.946747,176.818832
26197,0.586182,-0.895508,0.04248,-160.644516,359.252899,211.853012
26214,0.559082,-0.613403,-0.259277,-139.770508,368.164032,216.491684
26231,0.623047,-0.549438,-0.649292,-68.54248,350.524872,205.505356
26248,0.645996,-0.559204,-0.815552,-10.559081,268.432617,186.950668
26264,0.72168,-0.543457,-1.202271,10.742187,204.650864,178.222641
26281,0.663818,-0.375366,-1.308472,18.920898,40.466305,166.076645
26298,0.612061,-0.286255,-1.284912,13.916015,-108.5205,147.094727
26314,0.5979,-0.223633,-1.246094,9.521484,-174.987778,131.958008
26331,0.600708,-0.165161,-1.17749,-2.929687,-303.161621,94.848625
26348,0.629517,-0.095581,-1.054321,0.976562,-425.720184,53.100582
26365,0.600586,-0.043579,-0.804565,18.981934,-486.206024,30.517576
26381,0.559448,-0.022949,-0.629761,106.323235,-593.444824,-16.052246
26398,0.289795,-0.02356,-0.347046,262.878418,-704.528748,-62.988277
26414,-0.062256,0.093018,-0.088867,338.623016,-768.493591,-92.65136
26431,-0.18335,0.051758,0.075806,371.154755,-884.826599,-131.103516
26447,-0.335205,-0.619751,0.335693,357.849091,-910.766541,-131.591797
26464,-0.618408,-2.027344,1.13623,350.707977,-837.951599,-5.371093
26481,-1.051147,-2.557007,1.622192,309.814453,-533.38623,268.920898
26497,-0.900391,-1.989746,1.619141,296.081543,-371.21579,381.957977
26514,-0.033691,-0.927368,1.142212,386.96286,-192.565903,462.341278
26531,0.274658,-0.862061,0.998779,532.226563,-143.981934,444.213837
26547,0.470093,-1.192017,0.993408,569.091797,-127.075188,450.927704
26563,0.373291,-1.216675,1.010498,536.865234,-76.293945,485.961884
26580,0.363159,-1.080444,0.924805,418.945282,-13.305663,481.201141
26597,0.416626,-0.793213,0.718506,357.60495,15.258788,463.989227
26613,0.477051,-0.25354,0.676147,278.930664,77.148437,416.442841
26630,0.525635,0.00647,0.600464,299.621582,160.095215,339.477509
26646,0.541016,0.206299,0.36792,314.39209,194.396957,300.720215
26663,0.539795,0.194336,0.288452,319.885254,226.440414,231.811508
26679,0.50061,0.107544,0.203125,310.180664,232.666,196.716293
26696,0.382813,0.023926,0.065063,231.628403,257.69043,126.525871
26712,0.302246,-0.030151,-0.010986,74.21875,330.322235,74.584961
26729,0.053467,-0.119873,-0.234619,3.173828,388.73288,57.312008
26745,-0.266357,-0.226318,-0.571533,-138.244629,523.498535,27.648924
26762,-0.449951,-0.335815,-0.779663,-323.059052,643.615662,-10.0708
26779,-0.446289,-0.56604,-1.15332,-426.696747,686.218201,-26.977537
26796,-0.224976,-0.668213,-1.593628,-651.794373,677.184998,-43.579098
26813,-0.164062,-0.60376,-1.689697,-591.308594,569.580078,-53.161617
26830,0.079468,-0.484375,-1.609497,-432.250946,509.521454,-51.513668
26847,0.030396,-1.30249,-1.3479,-86.242668,385.864227,14.648437
26863,-0.174194,-1.688965,-1.253052,84.106438,262.817383,142.944336
26880,-0.380493,-1.706299,-1.215942,64.63623,206.665024,195.922836
26897,-0.297485,-1.364624,-1.156006,-49.987789,117.797844,257.873535
26913,-0.243896,-1.251709,-1.109497,-109.558098,62.377926,281.12793
26931,-0.170288,-1.034302,-1.033203,-112.060539,41.198727,285.705566
26947,-0.117065,-0.778442,-0.898926,-89.538567,3.112793,279.35791
26964,-0.095215,-0.704102,-0.822021,-51.086422,-20.996092,256.04248
26981,-0.036011,-0.578491,-0.711182,-37.780762,-27.9541,241.394028
26998,0.039307,-0.510864,-0.615601,-25.695799,-37.597656,207.702621
27015,0.080811,-0.485229,-0.586182,-23.681639,-40.344234,175.109848
27031,0.143188,-0.439575,-0.563477,-24.475096,-39.794922,160.095215
27048,0.219116,-0.41333,-0.554199,-24.597166,-36.743164,130.065918
27065,0.273682,-0.413086,-0.552979,-24.658201,-31.616209,102.47802
27082,0.368408,-0.453613,-0.550659,-24.04785,-28.808592,90.637199
27098,0.453491,-0.479004,-0.560425,-25.512693,-23.620604,70.495605
27115,0.484497,-0.490234,-0.563354,-27.770994,-21.484373,52.795406
27132,0.538574,-0.526489,-0.562256,-28.015135,-21.484373,44.677731
27149,0.568604,-0.581543,-0.545654,-27.465818,-23.376463,32.226562
27165,0.570435,-0.609985,-0.531494,-30.395506,-25.939939,25.634764
27182,0.563965,-0.637695,-0.51001,-32.226562,-26.672361,23.376463
27198,0.561401,-0.637573,-0.491089,-31.921385,-28.991697,16.174316
27215,0.566162,-0.646851,-0.478394,-22.949217,-33.447266,5.371093
27232,0.564453,-0.680908,-0.450562,-16.296387,-36.376953,-0.488281
27249,0.56604,-0.745239,-0.411133,-5.126953,-41.076656,-9.094238
27265,0.563477,-0.771362,-0.392578,-0.732422,-42.236324,-9.70459
27282,0.551392,-0.780396,-0.369873,-2.075195,-40.344234,-7.324218
27299,0.540527,-0.768433,-0.36853,-4.882812,-32.226562,-1.037598
27315,0.541138,-0.764648,-0.368774,-4.272461,-22.949217,2.563476
27332,0.564209,-0.751343,-0.371948,-3.479004,-19.40918,3.845215
27349,0.580811,-0.725952,-0.379639,-3.845215,-14.831542,6.713867
27365,0.58606,-0.710693,-0.384033,-7.141113,-13.549804,8.789063
27382,0.58667,-0.67627,-0.393188,-9.399414,-13.732909,8.850098
27398,0.588745,-0.647339,-0.400146,-12.756347,-15.319823,5.310058
27415,0.593262,-0.641602,-0.400635,-11.535644,-19.40918,-3.601074
27432,0.603882,-0.661011,-0.404785,-9.460449,-23.132322,-9.460449
27449,0.603882,-0.702148,-0.395264,-6.408691,-36.254883,-24.04785
27466,0.592773,-0.73291,-0.380859,-2.990722,-54.565426,-42.66357
27483,0.551514,-0.820923,-0.34314,0.732422,-64.27002,-53.771969
27500,0.529663,-0.879028,-0.318848,3.112793,-84.472649,-79.162598
27516,0.534912,-0.891602,-0.317139,-6.652832,-105.834953,-98.632805
27533,0.494995,-0.99585,-0.263184,-6.958007,-113.952629,-98.999016
27550,0.348633,-1.318359,-0.121948,-4.638672,-102.966301,-70.068359
27567,0.241821,-1.581543,-0.021729,-66.833496,-27.587889,18.005371
27583,0.010986,-1.77124,0.071289,-134.887695,40.344234,82.031242
27600,-0.194702,-1.329712,-0.067383,-242.065414,218.444809,199.523911
27617,-0.179932,-1.075928,-0.192505,-228.881821,381.04245,247.131332
27634,0.157593,-0.684937,-0.446655,-186.401352,427.307098,250.854477
27651,0.430054,-0.552246,-0.587402,-88.073723,443.359344,257.873535
27667,0.454712,-0.549438,-0.675171,-30.700682,416.442841,284.790039
27684,0.265869,-0.467529,-1.036743,-21.606443,396.423309,305.664062
27701,0.067383,-0.081543,-1.442749,-40.100098,334.594696,325.683563
27718,0.060425,0.090088,-1.60791,-34.423828,230.041489,279.846191
27734,0.213501,0.139038,-1.84082,-29.113768,154.052734,243.957504
27751,0.323486,0.114258,-1.839966,-48.156734,-33.752441,179.077133
27768,0.358765,0.07959,-1.736084,-86.364738,-233.886703,126.708977
27785,0.562622,-0.046387,-1.334351,-97.228996,-331.176727,100.158684
27802,0.738647,-0.176636,-0.723633,-82.153313,-516.479492,54.199215
27819,0.750366,-0.177368,-0.442017,6.530761,-692.809998,13.061522
27836,0.297119,0.202393,-0.180664,85.998528,-783.63031,-16.052246
27853,-0.429687,0.554932,-0.011719,227.783188,-918.273865,-111.145012
27870,-0.455566,0.475952,0.189331,270.202637,-992.370544,-231.262192
27887,-0.606934,-0.677734,0.220215,281.860352,-1008.117615,-246.15477
27903,-1.389526,-1.911377,0.360474,235.534653,-989.318787,-88.684074
27920,-1.695557,-2.056396,0.697876,53.466793,-864.929138,137.145996
27937,-1.551025,-1.886841,1.056885,-44.677731,-755.126892,229.980453
27954,-1.026001,-1.213623,1.300903,-111.816399,-537.414551,362.304657
27971,-0.749756,-1.032715,1.492432,-14.343261,-334.777802,431.396454
27988,-0.355103,-0.930298,1.614624,62.561031,-151.855469,502.746552
28005,-0.154785,-0.708862,1.498169,81.115715,-83.496086,538.330078
28021,-0.049316,-0.602783,1.460205,118.286125,16.601562,597.53418
28038,0.12207,-0.351074,1.362549,156.921387,60.546871,615.05127
28054,0.18335,-0.207886,1.158081,264.953613,141.418457,616.943359
28071,0.220459,-0.16687,1.064941,366.088837,200.012192,579.772949
28088,0.295654,-0.080078,0.901001,414.42868,224.365219,548.64502
28104,0.331909,-0.080811,0.703369,495.178192,261.047363,470.214813
28121,0.321045,-0.150635,0.657593,508.727997,291.870117,382.019012
28138,0.248779,-0.28479,0.575684,472.351044,320.922852,337.158173
28154,0.154541,-0.267334,0.332886,316.833496,412.048309,243.713364
28171,0.107422,-0.253296,0.178711,112.060539,517.944336,149.108887
28188,-0.046875,-0.218018,-0.189819,4.699707,569.641113,103.637688
28205,-0.277222,-0.177856,-0.575684,-218.444809,658.935486,12.390136
28222,-0.432373,-0.203125,-0.775146,-387.329071,729.003845,-82.031242
28239,-0.682373,-0.325073,-1.07959,-449.279755,757.202087,-133.056641
28256,-0.599609,-0.485474,-1.207153,-471.557587,767.455994,-218.505844
28273,-0.579956,-0.429321,-1.442627,-309.692383,673.278748,-234.008774
28290,-0.317261,-0.320801,-1.793213,-22.094725,481.201141,-199.035629
28308,-0.133423,-1.077026,-1.799316,156.433105,374.938934,-148.55957
28325,-0.480591,-1.617432,-1.437378,279.907227,182.739243,-10.0708
28342,-0.625244,-1.57019,-1.268066,81.05468,86.547844,94.726555
28359,-0.598022,-1.224731,-1.25061,-26.550291,70.861816,126.342766
28375,-0.422485,-0.961182,-1.386963,-123.535149,48.767086,170.715317
28392,-0.374023,-0.872437,-1.352051,-103.759758,8.728027,201.477036
28409,-0.355103,-0.763916,-1.109253,-81.05468,-10.437011,208.068832
28426,-0.325806,-0.664429,-0.888672,-54.077145,-35.339355,201.354965
28443,-0.288452,-0.602783,-0.830078,-49.377438,-51.147457,173.583969
28460,-0.199707,-0.50354,-0.760132,-46.081539,-59.570309,155.944824
28477,-0.114136,-0.443115,-0.697388,-31.249998,-77.087402,119.873039
28494,-0.086182,-0.425171,-0.665283,-12.023925,-88.317863,87.768547
28511,-0.04126,-0.41394,-0.611694,-4.02832,-89.172356,73.913574
28528,0.003052,-0.438721,-0.577881,2.075195,-81.115715,50.537106
28545,0.02417,-0.470581,-0.56311,-5.493164,-64.147949,31.616209
28562,0.085815,-0.536377,-0.553345,-14.282226,-53.894039,24.414061
28578,0.14856,-0.574951,-0.560547,-33.752441,-36.682129,12.451171
28595,0.180664,-0.586304,-0.56897,-38.208008,-27.221678,1.586914
28612,0.204102,-0.621948,-0.583374,-34.606934,-24.841307,-3.479004
28628,0.18457,-0.69458,-0.579102,-23.803709,-20.38574,-13.000487
28645,0.180542,-0.727661,-0.579712,-18.615723,-13.061522,-19.226074
28662,0.171875,-0.772461,-0.592896,-17.456055,-8.850098,-21.240232
28678,0.150635,-0.800659,-0.620361,-13.305663,-1.953125,-23.925779
28695,0.138184,-0.813599,-0.630981,-6.408691,2.380371,-23.864744
28712,0.115845,-0.851807,-0.640747,-3.295898,3.601074,-21.911619
28729,0.10791,-0.873657,-0.639648,-2.685547,3.601074,-13.97705
28745,0.106323,-0.871582,-0.638184,-6.469726,-0.793457,-3.845215
28762,0.106445,-0.852051,-0.634644,-7.690429,-3.90625,0.976562
28778,0.104736,-0.820801,-0.621338,-8.422852,-8.605957,10.375976
28795,0.106445,-0.803345,-0.612793,-9.887695,-10.009766,16.784668
28811,0.117798,-0.772461,-0.596313,-11.169433,-9.643555,18.493652
28828,0.123535,-0.764282,-0.587402,-13.549804,-7.019042,20.1416
28845,0.109375,-0.742432,-0.57605,-14.160155,-2.807617,16.174316
28861,0.072998,-0.700684,-0.613403,-14.587401,-1.89209,9.460449
28878,0.010864,-0.739746,-0.666748,-17.333984,-7.019042,-11.413573
28895,-0.033813,-0.796509,-0.689331,-5.004883,-19.40918,-33.38623
28912,-0.07605,-0.937134,-0.730713,2.319336,-25.817869,-39.611816
28929,-0.120239,-1.217163,-0.711548,3.784179,-31.616209,-24.658201
28946,-0.140747,-1.399048,-0.684692,-40.64941,-13.610839,47.424313
28962,-0.128174,-1.626221,-0.677612,-90.026848,1.770019,102.966301
28979,-0.107178,-1.648193,-0.656006,-218.017563,32.104492,230.773911
28996,-0.122925,-1.597656,-0.62915,-328.24704,69.030762,348.693817
29013,-0.206055,-1.319336,-0.526611,-364.685028,95.031731,393.554657
29029,-0.189697,-0.958618,-0.520142,-395.873993,161.254868,439.819305
29046,-0.091309,-0.791748,-0.594238,-397.094696,221.740707,448.303192
29063,0.150146,-0.426025,-0.694336,-387.268036,240.844711,447.814911
29080,0.262451,0.027344,-0.664185,-327.514618,264.770508,431.94577
29097,0.278809,0.217041,-0.64502,-144.470215,290.283203,388.610809
29113,0.326416,0.175903,-0.958618,-62.19482,291.320801,371.45993
29130,0.359009,0.101563,-1.268555,-6.774902,218.322739,353.637665
29146,0.387573,0.262329,-1.401367,-85.876457,63.781734,300.292969
29163,0.619263,0.39856,-1.391113,-128.173828,-31.799314,248.535141
29180,0.750977,0.404419,-1.23999,-133.850098,-245.849594,123.046867
29197,0.813599,0.308228,-0.753052,-38.818359,-462.95163,-9.033203
29213,0.573608,0.057373,-0.171631,20.26367,-551.269531,-69.335937
29230,0.482056,-0.106567,0.099365,120.849602,-675.414978,-147.460937
29247,0.207764,-0.403809,0.378662,140.563965,-784.912048,-142.76123
29263,-0.152222,-0.333374,0.405273,100.036613,-833.801208,-127.441399
29280,-0.313599,-0.260742,0.471924,-0.12207,-917.480408,-91.613762
29297,-0.765015,-1.008911,0.729248,-49.926754,-940.063416,58.1665
29314,-1.680054,-1.915894,0.984741,-105.041496,-889.22113,203.124985
29331,-2.190918,-1.776611,1.066284,-172.607407,-742.919861,443.847626
29348,-1.779785,-0.465576,2.036133,18.432617,-543.884277,481.567352
29365,-0.967773,-0.549438,2.459473,140.930176,-389.953583,483.581512
29382,-0.718384,-0.759155,1.919922,271.30127,-95.275871,544.494629
29399,-0.601196,-0.686157,1.643921,315.124512,44.43359,617.858887
29416,-0.392944,-0.635864,1.32605,329.528778,69.274902,643.249451
29432,-0.140259,-0.535034,1.164673,324.46286,91.491692,657.775818
29449,-0.008789,-0.393066,1.066162,313.903809,111.083977,633.911133
29466,0.169678,-0.0979,0.911865,320.617676,122.25341,614.379883
29483,0.24231,0.121216,0.758789,366.394012,154.35791,559.082031
29499,0.26123,0.159546,0.683105,430.786102,199.645981,476.562469
29516,0.299561,0.180664,0.543945,450.317352,226.135239,429.504364
29532,0.324829,0.11853,0.487671,457.641571,283.691406,327.697723
29548,0.263794,-0.147705,0.349121,432.250946,316.955566,276.794434
29565,0.148193,-0.315308,0.164673,279.47998,393.798798,186.279282
29582,0.106567,-0.318481,0.043945,32.592773,486.267059,108.825676
29598,0.013306,-0.245117,-0.244507,-98.388664,532.958984,65.917969
29615,-0.19165,-0.262695,-0.585327,-336.914032,609.130859,-35.27832
29632,-0.327393,-0.368164,-0.7677,-494.44577,657.897888,-152.282715
29649,-0.534546,-0.588623,-1.078003,-503.051727,678.710876,-217.163071
29665,-0.326782,-0.554321,-1.326294,-483.215302,666.992126,-326.721161
29683,-0.222656,-0.443726,-1.459717,-297.424316,531.616211,-350.402802
29700,-0.005127,-0.559814,-1.768921,148.254395,346.801727,-256.591797
29717,-0.296753,-1.400757,-1.597412,330.566376,253.540024,-175.415024
29734,-0.489014,-1.638062,-1.332642,350.524872,116.760246,-40.771481
29751,-0.73645,-1.522827,-0.991943,87.09716,84.289543,25.085447
29768,-0.576172,-1.116455,-1.180786,-28.320311,81.29882,41.809078
29785,-0.361694,-0.948242,-1.394897,-103.820793,44.067379,73.730469
29801,-0.342773,-0.901367,-1.337402,-59.875484,-31.799314,109.741203
29818,-0.38501,-0.848511,-1.02356,-38.330078,-63.537594,123.107903
29835,-0.387939,-0.781128,-0.781494,-30.944822,-91.918938,138.366699
29852,-0.361816,-0.736816,-0.724243,-51.879879,-89.660637,143.981934
29869,-0.268555,-0.651489,-0.663696,-62.19482,-85.388176,144.958496
29886,-0.164307,-0.571411,-0.606201,-69.519043,-78.796387,142.944336
29903,-0.119507,-0.540039,-0.578125,-60.913082,-70.43457,137.573242
29920,-0.023437,-0.512817,-0.537476,-57.983395,-64.880371,133.239746
29937,0.052734,-0.490112,-0.506836,-58.04443,-53.588863,117.248528
29954,0.097534,-0.482422,-0.499878,-60.668941,-41.748043,92.834465
29971,0.186279,-0.496826,-0.493896,-61.645504,-36.804199,78.491211
29988,0.249512,-0.514648,-0.48877,-60.05859,-33.38623,43.273922
30004,0.277466,-0.525024,-0.491577,-43.334957,-35.461426,6.16455
30021,0.280029,-0.569824,-0.493774,-29.174803,-37.475586,-11.413573
30038,0.254517,-0.660889,-0.480469,2.258301,-41.259762,-44.189449
30055,0.237793,-0.704102,-0.476685,25.146482,-38.208008,-66.28418
30071,0.192261,-0.768066,-0.485229,32.958984,-32.470703,-71.411133
30088,0.129272,-0.846069,-0.498413,41.748043,-14.404296,-69.885254
30105,0.099976,-0.88269,-0.510376,30.944822,9.216309,-54.504391
30122,0.052979,-0.924438,-0.541016,18.432617,21.118162,-42.968746
30139,0.042603,-0.907349,-0.585815,-10.0708,40.100098,-18.249512
30156,0.043701,-0.883301,-0.613403,-27.648924,47.424313,0.915527
30173,0.052856,-0.845093,-0.654053,-28.015135,41.870113,10.925292
30190,0.065796,-0.81543,-0.668701,-24.475096,35.766602,13.000487
30206,0.068604,-0.80481,-0.668579,-15.136718,20.812986,12.145995
30223,0.073242,-0.785767,-0.654907,-11.230468,12.939452,9.338379
30240,0.058228,-0.787231,-0.628296,-5.615234,-1.037598,1.220703
30257,0.027588,-0.790894,-0.610107,-5.554199,-8.361816,-7.629394
30274,-0.086548,-0.863037,-0.553955,-16.601562,3.417969,-10.0708
30291,-0.236572,-1.03894,-0.508179,-35.705566,19.348145,-4.821777
30308,-0.405762,-1.389648,-0.495605,-114.31884,74.34082,34.057617
30325,-0.440308,-1.51123,-0.522217,-240.783676,155.578613,126.220695
30342,-0.481689,-1.578735,-0.61731,-296.75293,198.913559,188.720688
30359,-0.515869,-1.672241,-0.642578,-360.168427,267.456055,322.936981
30375,-0.517334,-1.735229,-0.62207,-401.061981,303.710937,448.608368
30392,-0.436768,-1.64856,-0.687378,-439.880341,311.767578,505.676239
30409,-0.205322,-1.161011,-0.729248,-505.737274,300.354004,581.848145
30426,-0.034546,-0.874512,-0.668457,-485.107391,255.615219,583.435059
30443,0.256958,-0.495239,-0.532471,-455.505341,231.689438,565.368652
30460,0.37915,-0.169922,-0.621216,-363.52536,186.523422,512.451172
30477,0.4646,0.034424,-0.681152,-248.840317,115.234367,426.513641
30494,0.711548,0.442261,-0.585571,-178.649887,66.711426,370.178192
30510,0.869873,0.535767,-0.324097,-46.874996,-29.296873,249.206528
30527,0.892578,0.423584,-0.261108,30.273436,-99.792473,158.203125
30544,0.873047,0.267212,-0.205078,53.955074,-129.882812,126.525871
30561,0.888184,0.197754,-0.292847,62.622066,-191.040024,65.734863
30578,0.887207,0.199951,-0.322266,50.292965,-282.226562,2.746582
30594,0.81604,0.261719,-0.158691,58.532711,-332.763641,-24.597166
30611,0.739014,0.234741,0.065186,96.80175,-420.165985,-56.823727
30628,0.696411,0.24353,0.195679,143.066406,-515.808105,-57.739254
30644,0.498901,0.28186,0.408936,174.133286,-572.692871,-56.15234
30661,0.127808,0.151367,0.319092,289.367676,-706.420837,-55.847164
