ax,ay,az,gx,gy,gz,label
0.2704303136203043,0.5098839012019816,1.7989748104699133,0.0377371575482397,0.3332093617311872,-0.355428660878432,5
0.2352129052463515,0.3473282069104058,1.898095847564091,0.2279889856650988,0.4200480222123456,-0.4138422878269964,5
0.2857159718527401,0.2602229041204863,1.940626888231064,0.3647694029957135,0.4115826186252614,-0.4199270439572243,5
0.2717840367490506,0.1859986401070462,2.008114195067812,0.4581227937535533,0.4154057049821583,-0.3773337643379721,5
0.2690750053356696,0.1156604632147287,1.980170490782064,0.4938688698897862,0.4364326844191958,-0.3550230117989845,5
0.2888133664587942,0.0627024759641211,1.9040721635252504,0.4879604233930504,0.4926866808898047,-0.3148636465949323,5
0.4054935210966804,0.0424596471456877,1.691943901082166,0.3795405095571612,0.5199944482518188,-0.2418466394939129,5
0.522367064752959,0.128951886191499,1.5188323002983002,0.3027307970633178,0.4995136227303082,-0.1850556221554819,5
0.6576252464036159,0.2123754564416653,1.4246308179232945,0.1736313156486574,0.4195018682968187,-0.0617379896333639,5
0.730187342353837,0.2399800753020528,1.4211164389155395,0.1237049853449638,0.3637940257417367,-0.0219842868011023,5
0.7893976702555455,0.303775555515446,1.3748939325476723,0.1325676599302634,0.3534171102949343,-0.0434837478273663,5
0.8159078173341783,0.3086817405058633,1.28245035954115,0.2217851178115654,0.3583324731641547,-0.0945956514688455,5
0.8228745774639674,0.2784205120876738,1.2154899935961838,0.3384768731995508,0.3826363850425622,-0.0998691027940068,5
0.8588655419114894,0.1534878362562415,1.0655767496136088,0.3485212235316491,0.4489942557950447,-0.0588984394310595,5
0.9567758656741012,0.1109569577681286,0.929899548084405,0.2894368021260541,0.4823097296501677,-0.034559441494834,5
1.0432714818839002,0.1675966775584893,0.8659266202554121,0.175403848629639,0.5096174970121818,-0.0029187335438666,5
1.2046498622646284,0.1565548300143343,0.7622358826407047,0.1245912542555526,0.4951443779837801,0.0039773207452563,5
1.2609593548904523,0.092146286056833,0.7237476016024802,0.1086384574267185,0.4828558835656946,0.0072225200270083,5
1.25979743562421,0.1318145253682224,0.698614248739566,0.0935719343486691,0.4716597014527672,0.0457592955594418,5
1.2882430580426545,0.2062414689254797,0.6622351709976793,0.0974124216674298,0.4683827690113972,0.0924090327423118,5
1.4035694895517945,0.2379348544508069,0.59545045201664,0.1077521933563257,0.4741173985467426,0.104172882630977,5
1.433562224117377,0.2612446770273332,0.5488780914501309,0.0844138480869637,0.5093444200544184,0.0964655301829589,5
1.449814827441775,0.3007085617573532,0.4592463095956548,0.0241477412541784,0.5169905927682122,0.0360236910680144,5
1.5053507639940291,0.3148157280220489,0.4256775832766018,0.0167621928136504,0.4913212916268832,-0.0179277893604552,5
1.5196694771345036,0.3047973284222929,0.3827952486817746,0.0398051118860189,0.4312442087993773,-0.1250194055352989,5
1.5272164043194694,0.2910971962827838,0.3487010212001528,0.0522128475930857,0.4129480034140786,-0.1672070161365889,5
1.5601115593168258,0.2931424171340298,0.2857819751547224,0.036850888637651,0.4099441524045764,-0.1688296191005506,5
1.6094527066569722,0.2878258479433217,0.2599474741653123,0.0152850811894665,0.3921941054089089,-0.1736974213462643,5
1.6400271934336206,0.2849632087665982,0.254675185789074,0.0182393044378344,0.3463170914966674,-0.185866920314377,5
1.6872410615714513,0.2972311837989695,0.233937326211975,0.0096720608897242,0.3179170163035995,-0.1899234244011956,5
1.7154917098156153,0.3317872085010201,0.2214591931270877,-0.020756416303564,0.2559283679271235,-0.2024985790949274,5
1.7211031616607697,0.3536665490079608,0.2131980269056635,-0.0550253808156129,0.1991282175409877,-0.2256206297928101,5
1.7358086528380283,0.3829060045193033,0.2008955407847033,-0.075409502836607,0.1748243235589975,-0.2402240365299512,5
1.756707348071507,0.4123498146120152,0.1921088734007104,-0.0925439850926315,0.1253972599806834,-0.2759212419215658,5
1.7588362124297108,0.3861773528587655,0.2010711877486304,-0.0686147971096743,0.0866202380220828,-0.3104014934286661,5
1.739872992536044,0.3256532209848345,0.2052895943413061,-0.0606384011153552,0.0726932773833123,-0.3428535061847003,5
1.7688971968537772,0.2724908791528576,0.1864852910966178,-0.0665468427718951,0.0759702098246824,-0.3542117069939178,5
1.9128626397997537,0.2056284051813716,0.1639895221510353,-0.0783637260849749,0.082250997749659,-0.348532606589309,5
2.0074837650938075,0.176388949670029,0.1525652708497106,-0.0692056446634654,0.060131701533359,-0.297826358673449,5
2.127648092374532,0.1248614444890071,0.1597711155583596,-0.0579795992237849,0.0437470438006132,-0.2576669868232251,5
2.054504244213246,0.1381528674657774,0.2269071284672531,-0.0284373909410854,-0.0015838430407274,-0.1631505186959418,5
1.973234886967705,0.1755715313445515,0.2602987680931665,-0.0027356699771467,-0.0436378019148024,-0.0820204967751138,5
1.8134036187341152,0.2410018482088997,0.3520397532439803,0.0152850811894665,-0.0671224784458152,-0.0373989916971385,5
1.664213501979769,0.2571559103623935,0.4293690489774961,0.0203072587756135,-0.066576320056184,-0.034559441494834,5
1.5372773887435356,0.2538828869853791,0.4697908863481314,0.0028773503225955,-0.0521032055018866,-0.076341396370505,5
1.4931593300558703,0.2395713661393141,0.4829716072887272,-0.011302908685061,-0.0209723562570799,-0.1461132108359439,5
1.5008996462592288,0.2099215264276806,0.4863117790617672,-0.0071670000095026,-0.0007646121674371,-0.171669169302855,5
1.591264627992763,0.1798646525908606,0.4532699936344956,0.0114445938707057,0.0330970156032127,-0.1919516764446049,5
1.6547326846108794,0.1712767350606903,0.4332347219131051,0.0409868021534052,0.0415624281385056,-0.1801878199097682,5
1.8079855559073528,0.1702549621538434,0.4016009916556753,0.0749603404684607,0.0276354630256308,-0.1440849587925346,5
1.982135537281417,0.2033788297487562,0.4047640767355758,0.0799825132144118,0.012343117598043,-0.126236359419813,5
2.02083553314232,0.2379348544508069,0.4112673335885163,0.0817550461953934,-0.0277992980975834,-0.1229911534918896,5
1.980006672923213,0.2444775511297313,0.4091581302921785,0.0799825132144118,-0.0348993168958504,-0.1870838741988912,5
1.9039604043301528,0.266356891636672,0.393868206055245,0.0737786502010744,-0.0196069669941583,-0.2410353413350179,5
1.8975753964114297,0.2598141949577475,0.3576633355480728,0.0693473298491102,0.0232662227532069,-0.3570512571962222,5
1.90550910163318,0.2195328919022501,0.350808784767278,0.1124789495856752,0.0503009086833532,-0.4187100900727101,5
1.9163452272867043,0.0657694697222139,0.3559054261795892,0.1910612192614796,0.0393778035281893,-0.4049179881406357,5
1.879580706765613,-0.1143707687924412,0.3791052227100927,0.1801306000187926,0.0030584741894598,-0.3732772668973251,5
1.8228844361030043,-0.1775531852617263,0.4175935037483173,0.0708244269527064,-0.1045341111414942,-0.2609121861049771,5
1.6864659203419936,-0.1528112055780622,0.4827959603248,-0.0745232387662142,-0.1618804288654699,-0.1246137564558513,5
1.56127189342718,0.0066758199178685,0.5075765795306475,-0.1291763204590614,-0.1577842655508096,-0.0743131443270957,5
1.5096069075545488,0.076400933066078,0.5033581729379719,-0.1616727568303247,-0.1056264234466523,-0.0248238370034067,5
1.4260152969324114,0.1528747725121334,0.4791059343531182,-0.1501512948740425,-0.0734032663707918,-0.0240125388445115,5
1.3877020791082928,0.1757758859259209,0.468208623943575,-0.1005203810869506,-0.0288916059286372,-0.0666057918790776,5
1.388862413218647,0.1737306650746749,0.4743605868686613,-0.0464581421076987,-0.0103223280596794,-0.1400284613518875,5
1.4002787059273478,0.1541009000003496,0.4866630729896215,-0.0263694366033063,-0.0002184537778058,-0.1736974213462643,5
1.3704809455360454,0.1144343357265124,0.475414468652224,-0.0234152133549384,0.0295470062040792,-0.2296771338796287,5
1.356549010432356,0.0946002160708177,0.4689126515284958,-0.0455718731971099,0.0549432259135405,-0.2897133504998118,5
1.3668033838748144,0.0880558443543411,0.4617068068198469,-0.0559116448860058,0.0614970907962806,-0.3201370979200935,5
1.4047298236621482,0.0579989705175211,0.4444833262505026,-0.052071157567245,0.067231720331626,-0.3667868616876497,5
1.4217575682160033,0.0412318446199191,0.4337631025340989,-0.0243014822655271,0.0716009695522585,-0.3915315352880087,5
1.4529122220478288,0.0111749707830992,0.4110902468953767,-0.0092349543472818,0.0778817530031308,-0.3959936818081033,5
1.4885164084585665,-0.0295150414351371,0.3901767403543507,0.0176484568840432,0.0863471610643194,-0.3870693688293996,5
1.5007062572408365,-0.0448500102256011,0.3826196017178475,0.0392142691724237,0.0811586854445009,-0.3607021122035933,5
1.5140580252893492,-0.0695919899092652,0.3597725388444107,0.0389188478156261,0.0781548299608943,-0.3473156593509664,5
1.5481135143970597,-0.0830860924298527,0.3574876885841457,0.0291699140001295,0.0699624988574692,-0.3177031967972367,5
1.5695923766857152,-0.0890157253646689,0.3631112708882382,0.0194209898650248,0.0522124518618017,-0.2690251942786143,5
1.606163508188414,-0.0914696553786537,0.367505324444841,0.0049453046603747,0.041835505096269,-0.2418466394939129,5
1.624546561026904,-0.081655610360267,0.3673296774809139,-0.0346412539544229,0.0224469874058122,-0.1919516764446049,5
1.6938194585085673,-0.033195098937338,0.3666270896252054,-0.0508894672998587,0.0131623484713333,-0.1688296191005506,5
1.781862186865505,0.026918648736302,0.372250671929298,-0.0650697311477112,-0.0097761741441525,-0.1367832620701355,5
1.8145639528444693,0.0451179317410417,0.3768203724498278,-0.0588658681343737,-0.0359916247269042,-0.1327267579833169,5
1.8447500764284448,0.0528867559081823,0.3949220878388076,-0.0567979137965945,-0.0466416529243046,-0.1396228122724399,5
1.836236204151517,0.0060627561737604,0.4209322357921449,-0.0647743097909136,-0.056199368816547,-0.1619335648114276,5
1.828689276966551,-0.0241984722444289,0.4307742246889131,-0.1011112286407417,-0.044457037262197,-0.1761313224691211,5
1.8112747543759116,-0.0520074456861858,0.4365748936861452,-0.1477879143392698,-0.0275262211398199,-0.1765369715485687,5
1.7979229863273989,-0.0383073135466768,0.4458885019619195,-0.159309376295552,-0.0253415965295037,-0.1732917722668167,5
1.7723813694966155,-0.0143844272260423,0.4603001913792175,-0.1528100919254169,-0.0288916059286372,-0.1651787707393511,5
1.7570941261082915,-0.0237897630816901,0.4553791969308334,-0.1321305437074293,-0.0212454332148433,-0.1728861165411976,5
1.7294236449193048,-0.044236946481493,0.4276111396090126,-0.1276992136750733,-0.0105954050174428,-0.1765369715485687,5
1.7029134978406717,-0.0448500102256011,0.4095094242200328,-0.1191319798073549,0.0134354254290968,-0.1651787707393511,5
1.6856923642684245,-0.0415786618861389,0.4023035795113837,-0.1049517207996983,0.0295470062040792,-0.1371889111495831,5
1.649701399820902,-0.0135653338630126,0.3878918900940857,-0.0978615840355762,0.0363739525186871,-0.1217742062535469,5
1.638091718093809,0.0324395725083795,0.3650448272206489,-0.0845675890983125,0.0489355194204317,-0.1018973548374161,5
1.6390586631857706,0.0608616096942445,0.3509844317312051,-0.0621155078993433,0.0533047596928555,-0.0950013005482931,5
1.6477659244810905,0.0976672098289105,0.3295439842983977,-0.0437993402161284,0.051393216514407,-0.094190002389398,5
1.6603441364560338,0.095826343559034,0.320404583257338,-0.0030310913339443,0.0442931977161401,-0.1067651570831298,5
1.664988643209227,0.092146286056833,0.3221624926258217,0.0327149799620926,0.0358277941290559,-0.11934030513069,5
1.669631564806531,0.0731295847266158,0.3385062986463178,0.0474860865235403,0.0158931269971765,-0.1205572523690327,5
1.66169785958478,0.0353022116851029,0.372250671929298,0.0445318681153684,0.0030584741894598,-0.11934030513069,5
1.6460254233155596,0.0359169504667633,0.3977338789908539,0.0132171268516873,-0.0135992605010494,-0.1104159987981577,5
1.6460254233155596,0.0671999517917995,0.4026548734392379,-0.0175067716983985,-0.0176954238157098,-0.0925673994254363,5
1.66169785958478,0.1506251970795181,0.407575867887622,-0.017802197895392,-0.0196069669941583,-0.0864826499413799,5
1.686079142305209,0.1949952667999553,0.4172422098204631,0.0102629036033194,-0.0275262211398199,-0.0889165510642367,5
1.6922723463614284,0.1988813539210778,0.4209322357921449,0.0383280002618349,-0.0373570184639301,-0.1006804075990734,5
1.6924657353798211,0.1929517209862616,0.4277867865729397,0.0365554672808534,-0.0447301142199605,-0.1120386017621195,5
1.6938194585085673,0.1984709697207868,0.438684096982483,0.0256248528783623,-0.0466416529243046,-0.115689450123319,5
1.7002044664272906,0.2133989043860644,0.4576640471910984,-0.0015539797097603,-0.047460883797595,-0.1266420084992606,5
1.7025267198038871,0.2193285373208807,0.471548795716615,-0.0186884619657848,-0.0469147298820681,-0.1444906145181536,5
1.705815918272445,0.23220957609736,0.4917597144019326,-0.0237106395519319,-0.044457037262197,-0.1550375171684761,5
1.6866608945162744,0.2019483476791707,0.4907043928891575,-0.0343458325976253,-0.0302569951915588,-0.1801878199097682,5
1.6808544684968394,0.1823185826048453,0.4826203133608729,-0.0432084975025331,-0.0054069293976243,-0.2041211754127176,5
1.681822998744689,0.169027159628075,0.4703178272399128,-0.0500032032294659,0.0109777283351214,-0.2106115739762215,5
1.6849188081948547,0.1563504754329649,0.4655724797554558,-0.0488215178022754,0.0128892715135699,-0.2142624289835925,5
1.6793073563497007,0.1197492298796683,0.4552035499669063,-0.0517757362104474,0.0120700361661752,-0.228054530915667,5
1.6765983249363197,0.1033924881823574,0.4532699936344956,-0.0588658681343737,0.0115238822506483,-0.2398183874505036,5
1.667115922411542,0.0735382938893545,0.4509851433742307,-0.0603429749183617,0.0128892715135699,-0.2414409904144654,5
1.6626663898326304,0.0512519192572274,0.4455372080340652,-0.0627063554531344,0.0153469686075453,-0.2390070892916085,5
1.6622796117958458,0.0461397046478886,0.4407918605496083,-0.0576841778669873,0.012343117598043,-0.2394127383710561,5
1.656279796758018,0.0248751029226083,0.4344656903898074,-0.053548269191429,0.0082469498092783,-0.2406296922555703,5
1.6491212327657254,0.0134245462157145,0.4325321340573966,-0.044094761572926,5.4623179957571646e-05,-0.2361675390893042,5
1.6471857574259137,0.0213994000017767,0.4425497699180919,-0.0293236598516742,-0.0056800063553878,-0.2175076282653445,5
1.6535707653446372,0.0438901292152732,0.4676816830517936,-0.0166205076280056,-0.0064992417027825,-0.2118285278607357,5
1.6711802621095575,0.0353022116851029,0.4601245444152904,-0.0039173554043371,-0.0007646121674371,-0.2162906810270018,5
1.675631379844358,0.0256925212480857,0.4483489991861115,-0.0166205076280056,0.010704651377358,-0.2187245821498587,5
1.670600095054381,0.0179220220433929,0.4276111396090126,-0.0251877463359199,0.0158931269971765,-0.2146680780630401,5
1.6704067060359886,0.0234429458154704,0.4209322357921449,-0.0275511268706926,0.0197162133540734,-0.2029042281743749,5
1.6804676904600546,0.0479805709177651,0.4096850711839599,-0.0216426852141527,0.0188969824807831,-0.1976307768492137,5
1.6853055862316395,0.0637242488709679,0.4007213171068273,-0.0077578427230978,0.0128892715135699,-0.1931686236829475,5
1.682016387763082,0.0633155397082292,0.3945707939109534,-0.0027356699771467,0.0055161757575395,-0.1980364259286612,5
1.670213317017596,0.0420509379829489,0.381037339313291,-0.0027356699771467,0.0033315556213276,-0.1992533731670039,5
1.669631564806531,0.0438901292152732,0.3696145277411788,-0.0071670000095026,0.0014200124428791,-0.1903290734806431,5
1.6707934840727732,0.051047564675858,0.3660987090042116,-0.0148479746470241,-0.0037684631769393,-0.1814047737942824,5
1.674082682541331,0.0465484138106273,0.3806860453854367,-0.0154388173606193,-0.0089569387967578,-0.1822160719531775,5
1.6709868730911657,0.0477762163363957,0.388418830985867,-0.0234152133549384,-0.0168761929424195,-0.185866920314377,5
1.6539591285373103,0.044298838378012,0.3972069380990725,-0.0299145025652694,-0.0157838806372614,-0.1883008214372338,5
1.6587954391530069,0.0459353500665192,0.4088068363643243,-0.0299145025652694,-0.0084107848812309,-0.1915460273651573,5
1.6700183428433153,0.0563641338665661,0.4124968623360061,-0.0355275228650117,-0.007864630965704,-0.1960081738852519,5
1.6825965548182586,0.0308047358574245,0.433938749498026,-0.0414359645215516,-0.0084107848812309,-0.2024985790949274,5
1.7152983207972228,0.0099488432948829,0.4553791969308334,-0.050594050783257,-0.0024030783881221,-0.2126398260196308,5
1.725167501358785,0.0130158370529757,0.4722513835723235,-0.1046562946027048,0.0232662227532069,-0.2256206297928101,5
1.7389060474440825,-0.0319689714491217,0.4954497403736144,-0.1028837616217233,0.0538509180824867,-0.2304884386846954,5
1.8255934675163856,-0.1634443439594785,0.4861346923686276,-0.0674331116824839,0.1423280805771649,-0.2158850319475542,2
1.9264077968666589,-0.2161979766287165,0.4536212875623498,-0.1090876294752567,0.2551091370538331,-0.1594996703347423,2
2.1377090767985982,-0.2718142484746783,0.2979088143117555,-0.1693537314678461,0.2960708015191673,-0.1254250612609179,2
2.215110653676293,-0.2707924755678315,0.2557290675726366,-0.3149968233837604,0.3140939254725982,-0.0386159455816527,2
2.2789654883311945,-0.1247995525924881,0.2704920509177889,-0.4172128548455285,0.2957977245614038,0.0291276234865484,2
2.1696372867039937,0.1637105904373668,0.3314775406308085,-0.5622651137282393,0.2772284287960287,0.145954850798991,2
2.12126149929992,0.259608165338826,0.3847288050141852,-0.5093845553359819,0.3209208673131017,0.1492000500807429,2
2.05140843476308,0.3095008338688929,0.4481733522221844,-0.4517772407143751,0.3512324901587224,0.1244553897727269,2
1.9198278147736545,0.3405794806125598,0.3743598752256358,-0.3867844163738074,0.4124018494985517,0.0599570465709638,2
1.8546192569900068,0.3518256827380842,0.3182953799610002,-0.3265182853400426,0.4629212164338153,-0.0260407908879209,2
1.798696542400968,0.2974355383803388,0.1919332264367832,-0.3188373107025211,0.4760289417251911,-0.0706622959658962,2
1.7594163794848878,0.2634942524599485,0.1189979842598701,-0.3628552235506543,0.4566404285088386,-0.1250194055352989,2
1.7168454329443614,0.2534741778226403,0.0885923430207176,-0.4154403218645469,0.3965633456813327,-0.1367832620701355,2
1.6578284940610453,0.3031608167337857,0.069261098884248,-0.4319839614069761,0.3678901935305014,-0.133132413708936,2
1.6498947888392947,0.3413985739755896,0.080332616528506,-0.453254352338559,0.3321170539001334,-0.1181233512461759,2
1.627255592440285,0.386994771184243,0.0230385925163806,-0.4848645197992336,0.2949784936881135,-0.0978408507505975,2
1.5483069034154515,0.442815397611574,-0.062901723637201,-0.4928409157935526,0.2742245733124221,-0.1014917057579685,2
1.5128961060231068,0.4710330802160697,-0.1154504001648693,-0.4937271847041414,0.2226128940720005,-0.1513866621611051,2
1.4950948053956823,0.4730783010673156,-0.256401329799524,-0.4760018548943258,0.0893510075997173,-0.1903290734806431,2
1.4937394971110476,0.329128923905666,-0.535664165422289,-0.4827965654614544,-0.0441839603044336,-0.199659028892623,2
1.4892899645321356,0.2841457904411207,-0.6158052523078511,-0.5008173117878717,-0.4871158819523077,-0.2223754305110581,2
1.4947080273588975,0.1356989374517928,-0.6005153280709176,-0.5111570883169635,-1.1394983715713705,-0.2373844863276468,2
1.3981514267250323,0.1009385581683727,-0.2593887679154973,-0.5090891339791843,-1.5278147316505903,-0.1846499730760343,2
1.191686457408789,0.2305730644088528,-0.050950531444095,-0.3634460662642496,-2.277685977059777,-0.0118430332302273,2
0.5123060803288927,0.5569122555177729,0.2792801580309944,-0.0816133658499446,-2.9114990814313777,-0.0390215946611002,2
0.4016241555729455,0.3600048911055158,0.1754123337231474,0.0398051118860189,-3.1471650999853185,-0.0605210357488497,2
0.3070014451230033,0.1283371474098386,0.0850779640129629,0.2764382091848044,-3.502712207236507,0.3844770943772468,2
-0.5753597286302974,-0.1728496798151262,0.4228657921245556,0.1792443359483997,-3.6018393979285857,1.186041675863242,2
-1.6245205159028653,-0.6670594593687781,1.0504624723406024,0.0179438782408408,-3.556781583570904,1.6087291996661244,2
-2.117559477670538,-0.9633401016033256,1.3675124408750965,-0.4364152914393321,-3.317019401702303,2.710474718037261,2
-2.8070008391745014,-0.1677374652057875,2.303019688584577,-0.117654868183171,-2.638967852543545,3.412655275058605,2
-2.424063635107598,0.3745224415705024,3.75645800266345,0.3582701525069496,-1.9368850613206487,3.365599862211602,2
-2.271199127003797,0.2485679928322231,3.775086658944212,0.7875184100554078,-0.0551070609854932,3.344100401185338,2
-1.6692187416457074,1.0783162697315214,2.814096204173175,0.8968245928018858,0.7941643804878662,3.368845061493354,2
-0.7309348533033675,0.9932561877928476,1.9896611857509776,1.293281142668356,1.9886059824468811,3.2098300109021323,2
-0.3961784624662562,0.9032882458262048,1.6722599232886295,1.5163248381936678,2.6931464752378576,3.0082219000153194,2
-0.1386302594884473,0.9640167322815052,1.032712050879477,1.444832685921202,2.923896822209379,2.837848854646197,2
-0.0016315766722595,1.0137033711926506,0.6117956977663487,0.9792473643170384,3.2087168184356614,2.237081026072577,2
0.1502659863395794,0.9883483277648782,0.3738329343338544,0.223557650792547,3.160655148594373,1.3377548170545754,2
0.8894384435322494,1.0862911235175836,-0.176435889877889,-0.2494131127678345,2.905054462908553,0.7588921982792393,2
1.6013271975727177,0.9098309425051292,-0.5542942614322627,-0.8417343948862045,1.7455668681369108,-0.5894887645827647,2
1.5676569013459034,0.6466758429030465,-0.4520086995289722,-0.8352351105160694,0.3845479282210107,-1.63241513984932,2
1.117188886118756,0.2504071840645475,-0.2404073779776694,-0.8219411155788056,-0.0482801191449896,-1.9622087918427091,2
0.6986474956411152,-0.5717749482114269,-0.1486663928268556,-1.0296228569888786,-0.4543465664868159,-2.5329583027518354,2
0.7508910634130348,-1.2164768016056526,0.0696123928121023,-1.4355329144738518,-0.5403660274134143,-2.83516763789616,2
0.8488029723315349,-2.0449989510167343,0.740793995478685,-1.7028897796374338,-0.3907194697860722,-2.752820668736989,2
0.3157087064183232,-1.917407990589948,1.0081070786375566,-2.102300475309137,0.2856938502795303,-2.438847477057828,2
0.0852508175743242,-1.6607955876667897,1.066456424162457,-2.122980023527125,0.9276993528661214,-2.2563051254595683,2
0.1949642120824214,-1.0557619735839534,1.1219925388060987,-1.9569527999098248,1.12404219107183,-2.1232518884460228,2
0.4908272180402371,-0.6472253397130833,1.3284957792158778,-1.281913416883227,1.3714506127657895,-1.647829844745356,2
0.5541018856399614,-0.5899742312161668,1.2915897605822098,-0.5646284894228161,1.6464396774448322,-1.1505029036164671,2
0.6109915453209621,-0.6635837564479465,1.112677490801112,-0.2594574630999327,1.802367022997151,-0.954573846611062,2
0.5864168735821409,-0.8752130259065596,0.7796350101739762,0.2273981381113077,2.2185373714654766,-0.69617477155519,2
0.6100230150731121,-1.0357234993468891,0.4727783244641048,0.4486692861350503,2.521653707300188,-0.5063304906185274,2
0.939941510138638,-1.0479914743792609,-0.1643090507208559,0.4262172049360811,2.507180588271786,-0.4191157391521576,2
1.1953624339141316,-0.8686703292276353,-0.3562263944786223,0.3434990507856978,2.169383393793135,-0.260100887946082,2
1.4641351257381376,-0.78810772311664,-0.5375977217546998,0.383380996875922,1.6874013284878533,-0.1031143087219303,2
1.4929659410374785,-0.8811426588413757,-0.6425194278461094,0.4616678548753205,1.455831473248573,-0.0114373841507798,2
1.4912254398719471,-0.834931722851062,-0.7360168826361944,0.4681671440856515,1.0298303990418065,0.1573130516082086,2
1.4681978802802649,-0.4957114929656626,-0.8499023428047363,0.3612243757553176,0.6289524675867378,0.2234340177124479,2
1.4343357801909469,-0.2452330775586898,-0.8745073150466568,0.3405448275373299,0.4454442463959113,0.2157266652644298,2
1.4000853169089555,-0.0689789261651572,-0.7353142947804858,0.3783588192897749,0.1360472881780839,0.1439265987555816,5
1.3658364387828528,-0.0154062001328892,-0.6734505702478306,0.4474875958676639,-0.0269800627501887,0.0417027914726232,5
1.311075643460056,-0.0818599649416365,-0.5908489861380766,0.4395111998733448,-0.0668494014880518,0.0124959713521695,5
1.294047898906201,-0.1170290533877953,-0.5265262041104418,0.4049468091643024,-0.0952494722070153,0.0141185743161313,5
1.2963701522827973,-0.1474963114249063,-0.4402331542997933,0.3709732708492469,-0.088149462356957,0.026288073284244,5
1.335263537162093,-0.1053741420995321,-0.4326760156632901,0.2593037269287799,-0.0643916999199721,0.0417027914726232,5
1.3575159555243177,-0.0986270908392383,-0.4456810896399588,0.1556105838428278,-0.0570186041639416,0.0234485230819396,5
1.4107280535440871,-0.0783842620208049,-0.45411790282531,0.1160240107074424,-0.062753233699287,-0.0065695819050661,5
1.4747778623732692,-0.0571179852579723,-0.4583348696887732,0.0658022638871471,-0.0895148471457743,-0.0958126053533597,5
1.5010930352776213,-0.08001909867176,-0.4665960359101974,0.0179438782408408,-0.1296572583672964,-0.182621721032625,5
1.5394062531017396,-0.1295013830015359,-0.4759096441859717,-0.0039173554043371,-0.1517765545835963,-0.2126398260196308,5
1.5452110939652863,-0.1509720143457378,-0.465189420469568,-0.0180976192521896,-0.1913727984672786,-0.2576669868232251,5
1.5486936814522363,-0.1681478494060784,-0.4490212614129989,0.0123308579410986,-0.2036612928853641,-0.2929585564277353,5
1.5839110898261894,-0.2204927729125778,-0.4057861931611048,0.0259202742351599,-0.1981997403077822,-0.3010715579552009,5
1.5990049441961212,-0.2458461413027979,-0.3799516921716946,0.0377371575482397,-0.1766266203775308,-0.2957981066300396,5
1.6055833411332372,-0.305348500269882,-0.3382988863243572,0.0291699140001295,-0.1400342051328291,-0.2694308433580619,5
1.5910712389743706,-0.3505359883157968,-0.3200215239714502,0.0081949492655402,-0.1176418409069744,-0.2523935354980639,5
1.5959091347459555,-0.3533986274925201,-0.3161544113066288,-0.0334595685272325,-0.083234063694902,-0.2223754305110581,5
1.6303514018904508,-0.3329514440927174,-0.3066651560669274,-0.0405496956109628,-0.0821417513897438,-0.1927629746035,5
1.618548331144965,-0.3212965328044542,-0.2971744610980135,-0.0373000558459932,-0.0911533044182506,-0.1801878199097682,5
1.591651406029548,-0.3125042606929146,-0.2922534666496293,-0.0355275228650117,-0.1110879760242343,-0.1688296191005506,5
1.5413417284415514,-0.2910353043862648,-0.2743273982245767,-0.0343458325976253,-0.1146379854233678,-0.1501697149227624,5
1.5047690117829635,-0.2620002034562916,-0.2611452375547684,-0.0355275228650117,-0.1097225867613127,-0.1339437118678312,5
1.479807562007358,-0.2180388428985932,-0.2690551098483384,-0.0346412539544229,-0.0916994628078819,-0.1217742062535469,5
1.4817430373471698,-0.2049517745031921,-0.2762609545569874,-0.0172113503416009,-0.0687609446665002,-0.1444906145181536,5
1.5018665913511904,-0.2211058366566861,-0.2871568252373182,-0.0045081981179323,-0.0613878444363655,-0.1578770673707805,5
1.528183349411431,-0.2581157913727214,-0.2845206810491991,0.0078995279087426,-0.0608416905208386,-0.1732917722668167,5
1.537083999725143,-0.2664976792839701,-0.2797753335647421,-0.0157342387174169,-0.0734032663707918,-0.1627448696164942,5
1.53418157929337,-0.244211304651843,-0.2683510822634175,-0.0322778782598462,-0.0802302082112954,-0.1530092651250668,5
1.530892380824812,-0.2231510575079319,-0.2616736181757623,-0.0414359645215516,-0.0889686932302474,-0.15057536400221,5
1.5442441488733247,-0.2043387107590841,-0.2490198381269478,-0.0240060609087295,-0.0922456167234088,-0.1757256733896736,5
1.560885115390395,-0.2022934899078381,-0.2344325017457227,-0.0136662892198336,-0.0947033182914884,-0.1911403716395383,5
1.5564339976555948,-0.2127222737078851,-0.2275779509649279,-0.0059853097421163,-0.0966148614699369,-0.2191302312293062,5
1.5337948012565854,-0.2376686079729184,-0.206136063802908,-0.0219381065709503,-0.0854186838311139,-0.2523935354980639,5
1.539986420156917,-0.2654759063771233,-0.1839930285143922,-0.0269602793169015,-0.0736763433285553,-0.263346087227834,5
1.553724966242214,-0.297986710227928,-0.1896166108184847,-0.0234152133549384,-0.0510108931967285,-0.2536104893825781,5
1.5543051332973907,-0.2985997739720361,-0.1980519842746235,-0.0101212232578705,-0.0504647392812016,-0.23495058520479,5
1.5469531802867058,-0.3049397911071432,-0.2077183262074645,-0.0012585583529627,-0.0567455272061782,-0.2312997368435905,5
1.537470777761928,-0.3407219432974103,-0.2084209140631729,0.0040590405899819,-0.0706724878449487,-0.221564132352163,5
1.5339881902749777,-0.3470602853949651,-0.2082452670992458,-0.0260740152465087,-0.08104944355869,-0.2008759761309656,5
1.534761746348547,-0.3347923103625939,-0.2172090211763785,-0.0467535634644963,-0.0873302270095623,-0.1899234244011956,5
1.5469531802867058,-0.3127086152742839,-0.2177359620681598,-0.0760003455502023,-0.1078110435828643,-0.1769426206280162,5
1.554693496490064,-0.3090285577720829,-0.2121123797640673,-0.0827950561173309,-0.1375765080388538,-0.171669169302855,5
1.5686254315937531,-0.3255913290883155,-0.1968224555271337,-0.0792499901553678,-0.1550534870249664,-0.1728861165411976,5
1.5763641626412237,-0.3625996087667987,-0.1838173815504651,-0.0721598630716374,-0.1957420387397025,-0.1830273701120726,5
1.572881575154273,-0.3820250192597546,-0.1753805683651138,-0.079840832868963,-0.2205921090077412,-0.1793765217508731,5
1.5413417284415514,-0.4282359552500683,-0.1085958493840745,-0.098747848105969,-0.211307465599158,-0.1732917722668167,5
1.4316267487775656,-0.4881470233798912,-0.0247647365268306,-0.1921012437040047,-0.1023494910052823,-0.1956025248058044,2
1.3611919320296602,-0.5045037650772022,-0.0521814999207973,-0.2954989654331592,0.1284011109901857,-0.3067506583598097,2
1.4240798215925998,-0.4744468912403822,-0.1078932615283661,-0.3064295798356503,0.2499206614340146,-0.4004558349743695,2
1.738324295233017,-0.5535773402442394,0.070841921559592,-0.2050998172844709,0.4435327032174627,-0.5253960438757631,2
1.8478458858786104,-0.671762964815378,0.1293669140484196,-0.0544345332618218,0.6098370313281488,-0.3562399590373272,2
1.885578936647552,-0.8144845394512591,-0.0310909066866316,-0.0479352488916867,0.6568063888642789,-0.1911403716395383,2
1.728263310808951,-0.5519425035932846,-0.2889147346058018,-0.2319832091550124,0.6587179320427273,0.1033615844720819,2
1.6624730008142377,-0.4129009864596044,-0.3701097032749265,-0.3303587726588033,0.6371447942160586,0.2007176160940127,2
1.5454044829836786,-0.3243635265625471,-0.4716926773225086,-0.2984531838413312,0.6300447754177916,0.1885481104797285,2
1.5241190097134154,-0.2941022981443576,-0.5247682947419582,-0.1779209701757604,0.6060139404971475,0.1496056991601904,2
1.4830983456318043,-0.297986710227928,-0.5938378639832624,-0.181761467174913,0.5396560384259347,0.1853029111979765,2
1.3594514308641292,-0.2538209950888601,-0.6857530563687909,-0.1921012437040047,0.4973290025940963,0.2254622697558572,2
1.2605725768536675,-0.1728496798151262,-0.7959470508364387,-0.1861928020474648,0.4285134302735341,0.3228183213163027,2
1.2203238836897374,-0.1609904139454937,-0.8841736569794978,-0.2036227056602869,0.3206477903553382,0.4542489088426857,2
1.1719480962856643,-0.067955478220758,-1.015456804952099,-0.2157350103301643,0.2297129128702675,0.5292941812794573,2
1.1719480962856643,0.0038148557786973,-1.1270574148603762,-0.2272564529256629,-0.0384493262949839,0.6481496672814807,2
1.1841395302238231,-0.0019104225747495,-1.1613287290351375,-0.2644796406860798,-0.4712773781350887,0.7341475446173946,2
1.249929840218536,0.0647460217778148,-1.1261791800407406,-0.2762965239991596,-0.7678396790710951,0.7572696019614489,2
1.1698208170833486,0.1510339062422568,-0.9008687569278482,-0.2981577624845336,-1.5226262560307715,0.6753282752355543,2
0.994122138406258,0.3403751260311904,-0.698055542489751,-0.2996348741087175,-2.35851710106379,0.3998917992732829,2
0.4571585069693114,0.7638380195297859,-0.2745030451885038,-0.2364145391873683,-2.717341140756349,0.2339809203627705,2
0.0900871281900207,0.8067776071806375,0.2908786165670336,0.1393623704973921,-3.308007839725588,-0.0588984394310595,2
0.0006906767043367,0.6630325846003573,0.5379807810405876,0.1609281827857725,-3.6731126673431223,-0.3773337643379721,2
0.3426056315337408,0.2262799431625438,0.5592470212386803,0.1615190254993677,-3.735647451738709,-0.3923428334469039,2
-0.1399839826171936,-0.2622045580376612,0.3184710269249273,0.5662472862326449,-3.665466494629329,0.3309313294899399,2
-0.8392945246827183,-0.567481826965118,0.5632883411382164,0.6882566550841626,-3.534662296302813,1.306925407262503,2
-1.869878870098404,-1.6409614680110949,1.3669854999833149,0.4070147683422774,-3.167919002464592,2.3153714977911,2
-2.429675086952752,-2.0092167988264675,2.245374370644597,0.3059804416684834,-2.8347645323596224,2.853263559542234,2
-2.408196224664097,-1.7172292778382283,2.464005889940622,0.1157285893506448,-1.885546463512095,3.534350311262933,2
-1.6454176259804556,-0.619622395890248,2.6487173889897395,0.1201599242231966,-0.8699707252467802,3.532322059219524,2
-0.7591855015475313,0.2704456583016116,2.933429599681882,0.29386813215841,-0.336103975328983,3.409815724856301,2
-0.3218742801946157,0.4135759421002314,2.530613522228521,0.7777694810801071,0.8059067209904247,3.15709549765052,2
-0.1771368663309581,0.445473682206928,2.1845659676247173,1.0486715574115293,1.7499361128834388,2.923846678812739,2
0.2127670978657343,0.6264330140846129,1.8212949324515688,1.125185887270142,2.13142559823372,2.708040816914404,2
0.2464358089366601,0.6472889066471545,1.4604829547734,1.0734870143050752,2.7849005656998016,2.1441871542630837,2
0.1409785579890825,0.6198886423681363,1.1592512910968336,0.4288760019874554,3.2185476112856675,1.47121370979374,2
0.3696959456675506,0.6546490216515564,0.3290170434066164,-0.1669903509330735,3.230836105703753,1.0331115807873943,2
1.3877020791082928,0.9507253093047348,-0.3328509509841917,-1.556360559176612,2.54104222051654,-0.0588984394310595,2
1.695174766793202,1.0274018282946074,-0.3750306977233106,-2.109686028589861,1.2436502699228795,-1.125758243308451,2
1.5351485243853316,0.7568849386505706,-0.4548204906810185,-1.9820636781601688,0.6928526367711406,-1.5066636062043453,2
1.2067787266228325,0.5348285604294628,-0.5790748806381102,-1.520319061683581,0.0016930894006425,-2.099318526296902,2
0.9678053803460174,0.2240303677299285,-0.6194967180087455,-1.34779254885595,-0.4740081566609319,-2.7386229110792955,2
0.5957043019326379,-1.0439027077143206,-0.0433933928075918,-1.2464626895008528,-0.6733548816689773,-3.006351988070348,2
0.3222886885113277,-2.2153251445130038,0.7448367551074334,-1.290480660431337,-0.5944354350665416,-3.109792769176336,2
0.0726726055993809,-2.1723855568621517,1.0241010304594111,-1.6352381146837287,0.1005471897126447,-2.649379887631002,2
-0.2665333178166421,-1.5963870437092884,1.1755950971173297,-1.6018554190822685,0.801264399286133,-2.054697014572755,2
0.26481886177515,-1.177218946494554,1.1067026145691652,-1.3377481985238522,0.9956956898392888,-1.7208468651387188,2
0.6593657475691468,-1.1205792267041934,1.1585472635119125,-0.5312457889811599,1.1953155275979326,-1.073429379136286,2
1.0997727783722278,-1.293153320595525,1.1165446034659334,-0.1805797720673307,1.3302158892391094,-0.6835996168614582,2
1.0651371222093404,-1.471454367877856,0.9497591728418686,-0.2074631929790477,1.3952083707286702,-0.584620962337051,2
1.015019248483848,-1.4522333119662694,0.8708476147037962,-0.316769356364742,1.5585086733397853,-0.4454829758394493,2
0.9188510110426558,-1.1539091239180277,0.6485260694360896,-0.2615254222779078,1.6510819991491237,-0.3602964631241457,2
0.8702818346201904,-0.8492449187346792,0.2567843890854118,0.1402486345677849,1.752939963892941,-0.1278589623837748,2
0.886342634082084,-0.750689059237866,0.0845510231211816,0.48087029630932,1.645074292656015,0.1049841874360436,2
0.9801902033025685,-0.6120562512669246,-0.0973486847758895,0.5083445502542404,1.5331124491562196,0.1816520561906055,2
1.0078606844915552,-0.3828424375852322,-0.1426915165949089,0.4468967531540687,1.279150368388319,0.2623764556166721,2
1.0357245546989342,-0.3114824877860677,-0.1808285037052792,0.3878123269082779,1.0519496863098978,0.2433108757747503,2
1.1061593714468398,-0.3552394937623968,-0.3087743593632652,0.3449761575696859,0.937257073232468,0.2262735679147523,2
1.2226461370663335,-0.3399045249719327,-0.3955929103364825,0.3234103452813055,0.6882103195409532,0.2145097180260872,2
1.2623130780191985,-0.3131173244370226,-0.4203735295423299,0.3068667057388762,0.4555481206777848,0.2173492682283916,2
1.275084679012534,-0.2744725330700324,-0.4442759139285419,0.3112980406114281,0.3616094056055248,0.2214057723152102,5
1.2998527397697477,-0.1750992552477415,-0.4486699674851446,0.2971177767635756,0.2223398171142371,0.2128871150621255,5
1.3166870953052103,-0.1252082617552268,-0.4377726570756013,0.285891736164091,0.1406896054082712,0.1788125059883011,5
1.3820906272631386,-0.0710224719788509,-0.4520086995289722,0.272302300509246,0.1163856935298636,0.1565017534493135,5
1.4217575682160033,-0.0671380598952805,-0.4725709121421441,0.1857436203185349,0.0628624800592022,0.0940316357062736,5
1.4912254398719471,-0.0303324597606145,-0.4520086995289722,0.1544288984156374,0.0068815650204611,0.0055999170630465,5
1.5247007619244808,-0.0381029589653074,-0.444451560892469,0.1514746751672695,-0.0182415777312367,-0.0499741330985272,5
1.5334080232198009,-0.0710224719788509,-0.4344339250317738,0.1325676599302634,-0.0643916999199721,-0.1558488153273712,5
1.5701725437408922,-0.1507676597643685,-0.4193196477587673,0.0566441776254417,-0.0996187124794392,-0.2235923777494008,5
1.5970694688563096,-0.2096552799497922,-0.4131676848336809,0.0141033909220801,-0.1231033934845563,-0.2540161384620257,5
1.6069386494178717,-0.2397121537866122,-0.3866305959885623,-0.0118937562388521,-0.1848189335845386,-0.3071563074392572,5
1.5964893018011326,-0.3172077661395144,-0.3154518234509204,0.0099674822465218,-0.2260536615853232,-0.3047224063164004,5
1.55159610188401,-0.3902042276271861,-0.2361889713849938,0.0211935228460064,-0.2367036897827237,-0.2925529073482877,5
1.5264412630900115,-0.4419360873895775,-0.1899679047463389,0.021488944202804,-0.2293305940266932,-0.2527991845775115,5
1.492192384963909,-0.4542040624219488,-0.1291595017264589,-0.0260740152465087,-0.1848189335845386,-0.1960081738852519,5
1.46432851475653,-0.4057435509990196,-0.0982269195955251,-0.0408451169677605,-0.158057342508573,-0.1765369715485687,5
1.4670375461699108,-0.3865241701249852,-0.0975243317398166,-0.0517757362104474,-0.1067187312777061,-0.164773115013732,5
1.473809332125419,-0.3597386446276274,-0.1068393797448035,-0.0142571319334289,-0.0802302082112954,-0.1846499730760343,5
1.4904502986424897,-0.3609647721158436,-0.1119360211571146,0.0108537463169146,-0.0720378771078703,-0.1951968757263568,5
1.4914188288903398,-0.3754823225808303,-0.1186134852447698,0.0309424469811111,-0.0581109164690998,-0.1943855709212902,5
1.47748689378665,-0.4137184047850818,-0.131619998950651,0.0114445938707057,-0.0436378019148024,-0.1676126718622079,5
1.4769051415755847,-0.3914303551154025,-0.1569275590482798,-0.0118937562388521,-0.0338070045906922,-0.1465188599153914,5
1.4887097974769588,-0.3462428670694877,-0.173271365068776,-0.0455718731971099,-0.0223377455200014,-0.1169064040078332,5
1.5148315813629183,-0.2703837664050927,-0.1962955146353524,-0.0399588528973676,-0.0242492886984499,-0.1165007549283856,5
1.5217983414927074,-0.2620002034562916,-0.2017434499755178,-0.0024402437801531,-0.0381762493372204,-0.1306985125860792,5
1.5229586756030613,-0.2646584880516457,-0.1998098936431071,0.009081213335933,-0.0496455084079112,-0.1477358137999056,5
1.5285701274482155,-0.2701794118237232,-0.1890896699267034,0.0043544619467795,-0.054014748680335,-0.153820563283962,5
1.5392128640833471,-0.2720186030560476,-0.1706352208806568,-0.0101212232578705,-0.0643916999199721,-0.1566601134862663,5
1.547146569305098,-0.2660889701212314,-0.1588611153806905,-0.0189838833225824,-0.069853252497554,-0.1509810130816575,5
1.5454044829836786,-0.2589332096981988,-0.134080496174843,-0.0219381065709503,-0.0695801755397906,-0.1517923178867242,5
1.539599642120132,-0.2634306855258773,-0.1143965183813067,-0.0340504112408277,-0.0616609258682332,-0.1700465663388932,5
1.5392128640833471,-0.2652715517957538,-0.1080689084922932,-0.0443901829297236,-0.0515570515863597,-0.1891121262423005,5
1.5258610960348349,-0.2634306855258773,-0.1047301764484656,-0.0485260964454778,-0.0469147298820681,-0.2000646779720705,5
1.5192826990977188,-0.272633341837708,-0.1121116681210417,-0.0476398275348891,-0.0433647249570389,-0.23495058520479,5
1.5187009468866537,-0.2871508923026945,-0.1179108973890614,-0.0251877463359199,-0.0501916623234381,-0.2617234909100438,5
1.51579852645488,-0.3345879557812246,-0.1258193299534188,-0.011302908685061,-0.0586570703846267,-0.2641573920329006,5
1.5070912651595605,-0.3758910317435689,-0.1210739824689619,-0.0092349543472818,-0.08104944355869,-0.2572613377437776,5
1.5096069075545488,-0.390612936789925,-0.1177352504251343,-0.063001776809932,-0.1119072068975246,-0.2592895897871869,5
1.528763516466608,-0.3799797984085086,-0.1201957476493263,-0.1099738935456495,-0.1332072677664299,-0.2694308433580619,5
1.5463730132315283,-0.3691439804832753,-0.1154504001648693,-0.2127807919219923,-0.1910997215095152,-0.3197314488406459,5
1.538439308009778,-0.3720066196599987,-0.0560471728564062,-0.3415848326190715,-0.2263267385430866,-0.404106683335569,5
1.4751646404100538,-0.4756730187285984,0.0509822968021286,-0.3850118833928259,-0.2118536239887892,-0.442237796496212,5
1.4494280494049905,-0.5515321193929935,0.0782234132321681,-0.3932837007439425,-0.1045341111414942,-0.4673880792989894,2
1.354613535092544,-0.7474177108984038,0.1578375592259489,-0.3327221483533801,0.085527930191029,-0.4187100900727101,2
1.3627406293326871,-0.9289884314826444,0.2000173059650678,-0.2470497370732577,0.2220667401564736,-0.3473156593509664,2
1.3695124152881957,-1.0077101713237628,0.3406155019426557,0.0894360208329149,0.5948177583842201,-0.0154938882375984,2
1.351130947605594,-1.2526693379962104,0.4226901451606284,0.2876642691450725,0.8389491178877843,0.234792225167837,2
1.553724966242214,-1.184579061498956,-0.004553817841513,0.242464666029553,1.1030152116347929,0.6806017265607156,2
1.6340273783957933,-0.9165161018689038,-0.1249410951337833,-0.0195747308763735,1.0128995829194294,0.8538143287783131,2
1.557207553729164,-0.4286446644128071,-0.3319727161645562,-0.1392206756313555,0.9686610039091428,0.8667951325514924,2
1.424853377666169,-0.0747025294810518,-0.7300420064042474,-0.2260747674984725,0.9115877720911392,0.8124380163359183,2
1.390991277576851,0.0815131476754167,-0.9374249213628746,-0.1291763204590614,0.7646719929896401,0.6935825303338949,2
1.346873218889186,0.2131928747671428,-1.2535966550777329,-0.0627063554531344,0.6469755915401687,0.6453101170791763,2
1.2745045119573573,0.3385359347988661,-1.416339326073049,0.0640297309061655,0.3840017743054838,0.5966321012682109,2
1.2712153134887991,0.374318086989133,-1.497885588670028,-0.0706827514474535,0.0661394125005722,0.5487653902623121,2
1.2921124235663892,0.3906765037239962,-1.599819856645464,-0.2118945230114036,-0.156418876287888,0.5191529277085825,2
1.275084679012534,0.4372961488770487,-1.5560592872310013,-0.4237121440558595,-0.7211434029668328,0.4530319616043429,2
1.2582503234770712,0.5724515788896063,-1.1978834537409513,-0.4124861373377462,-1.3109912066206053,0.3216013740779601,2
1.1957492119509163,0.5998501681310723,-0.839884706944041,-0.3548788275563352,-1.595264914708231,0.2514239038869021,2
0.8925342529824153,0.8219082213897322,-0.7142251412755326,-0.1152914924885942,-2.2102357940021364,0.1094463339561382,2
0.6816181659313716,0.9967318907136792,-0.5590396089167197,0.3355226499511829,-2.8708107847405886,-0.1866782251194436,2
0.249725007405218,0.7570909682694922,0.2471180471525707,0.6374440510296843,-3.135695836440523,-0.3992388877360268,2
0.2588206318932111,0.1778194317396147,0.5263823225045483,0.4879604233930504,-3.4213350680142,-0.6921182674683714,2
0.2868778911189825,-0.0522118002675552,0.5019529972265551,0.295345243782594,-3.582450884712233,-0.5708288604049766,2
-0.1719121925225885,-0.8760304442320371,0.9068768382470412,0.2793924324331723,-3.5576008189182984,-0.1809991247148348,2
-1.5364777875459277,-2.387694883822965,1.2267385979335812,-0.3519246043079673,-3.1941344575214483,1.1661648178009396,2
-2.223596895673293,-2.679272020610913,0.951341435246425,-1.0334633443076393,-2.836949156969939,2.8463675052531108,2
-2.009779973346365,0.079059217661432,2.261368322466452,-0.7005227007653888,-2.7329065676158053,3.204962208656419,2
-1.1314815541351917,0.2154424501997582,3.726229448117437,0.5375913420203382,-1.77686155245367,2.885309916572649,2
-1.0738183383806217,-0.1802114698570804,3.734840468537504,1.0055399328347685,-0.1190072256957916,2.962789090132277,2
-0.7404156706722567,0.2874171387805829,2.803551627420698,1.1290263745889029,0.5945446814264567,3.1116626811213064,2
0.0049468202648563,0.4620364535231606,2.214970169134657,1.683533606872477,1.4962469659019633,3.316516197321189,2
0.168455650159677,0.2197372464836194,2.018307477892434,1.8206094649206728,2.0975639659889658,3.1441146938773405,2
0.1523948506977834,0.1446955641447018,1.6218204500572992,1.5576837845835705,2.372280226630609,2.937233131665366,2
0.0736395506913425,0.4920933273599805,1.1332397034142836,0.7526586028297636,2.926627596261118,2.277240391276629,2
0.1518146836426064,0.6129372365264733,0.821814756913095,-0.4021463656488503,3.158743605415925,1.4063096909278432,2
0.8849873257974492,1.251913811567252,0.1010704761056049,-1.021941882351357,2.9897085345722303,0.8988413898893345,2
1.8174663732762424,1.431849695500538,-0.2657149380752983,-1.933614449800267,2.124052502477689,-0.2329223398075522,2
1.9298903843536088,1.2093829330791392,-0.4020961671894231,-1.9714284802742792,1.094549803573604,-1.0499016727127843,2
1.672533985238304,0.8184325184689006,-0.6033271192229639,-1.890778246580304,0.6360524863850048,-1.3038385480791892,2
1.378414650757796,0.6035319006708255,-0.5629052818523286,-1.6325793176323544,-0.0267069857924253,-1.7792604854411116,2
1.2249683904429305,0.3215644543198949,-0.4831154888946207,-1.5643369551709312,-0.4404196058480454,-2.324454144222071,2
0.8573168446084626,-0.5732071053185649,-0.1817081782541273,-1.5572468280872007,-0.6539663639785206,-2.5771741653965345,2
0.9618071504640784,-1.7354285608429685,0.638685520268534,-1.82224031271601,-0.904378506932957,-2.6846714439431687,2
0.8724106989783944,-1.7767316368053128,1.0107432228256756,-1.950748932056292,-0.4494311678247608,-2.024678909585749,2
0.312226118931373,-1.0978824678717751,1.2386897901266871,-1.8535550588198868,-0.0556532149010201,-1.6896118062671983,2
0.2580454906637533,-0.6427278638854049,1.1569664408365683,-1.3696537825011283,0.630317852375555,-1.3659030167427817,2
0.5364939740309292,-0.569527047816364,1.1341193779631318,-0.6107143372479449,1.0544073878779774,-1.1464463995296483,2
1.146599868473274,-0.7611178430379127,1.073662268871106,-0.3421756753326667,1.2013232340910414,-0.9894597538437814,2
1.3778328985467307,-1.0054622709287,0.8596004500956111,-0.1386298280775644,1.4238815228795016,-0.7225419816577955,2
1.402600959303944,-1.0637368273700158,0.6908814631391357,-0.0875218075064845,1.5153624021605523,-0.580564464896404,2
1.4070520770387445,-1.0254990701282118,0.3434272930947019,-0.0697964873770606,1.5028008307847032,-0.545678551017513,2
1.412276750847114,-0.8974994005386866,0.0511579437660557,-0.008348690276889,1.4105007206303624,-0.4483225260417536,2
1.4103412755073024,-0.8351360774324313,-0.0681740120134393,0.0850046908005589,1.2357310202513223,-0.2110172297018406,2
1.363900963443041,-0.5977430553833074,-0.2098275295038023,0.1511792538104719,1.1172152492313263,-0.0735018461682006,2
1.257476767403502,-0.4764921120916282,-0.2346081487096498,0.285891736164091,0.8577914727145054,0.0984937822263682,2
1.2015540528144628,-0.4709711883195506,-0.2245905128489546,0.3824947328055291,0.6101101082859123,0.1236440916138318,2
1.2121967894495944,-0.3705744625528608,-0.2361889713849938,0.3972658345267809,0.5038828630027321,0.1110689369201,2
1.2241932492134724,-0.3253869745069462,-0.2416383464543717,0.3901757074430506,0.3190093241346532,0.089975131619455,2
1.2507033962921053,-0.3198660507348685,-0.1978763373106964,0.4014017480425352,0.1723666219909178,0.1208045414115274,2
1.2584437124954635,-0.2521861584379052,-0.1722174832852133,0.403765123737112,0.1210280152341553,0.1504169973190856,2
1.2677311408459604,-0.1910489628198659,-0.1745023335454783,0.359451842774336,0.046477817852352,0.1552847995647993,2
1.3420353231176008,-0.0747025294810518,-0.1632537292080807,0.3065712843820786,0.01944313639631,0.1183706402886705,5
1.4430430414862667,-0.0693876353278958,-0.1838173815504651,0.2055369044661296,-0.0064992417027825,0.0124959713521695,5
1.5007062572408365,-0.085335667862468,-0.2121123797640673,0.113365213656068,-0.0305300721493222,-0.0868882990208275,5
1.6051965630964524,-0.13686317304349,-0.234959442637504,0.0847092694437613,-0.0504647392812016,-0.1233968025713371,5
1.6531839873078529,-0.1818463065080353,-0.2472619287584642,0.0554624873580553,-0.0884225393147205,-0.1627448696164942,5
1.6578284940610453,-0.2133353374519932,-0.2411099658333779,0.0374417361914421,-0.1280187921466114,-0.1947912266469093,5
1.656474770932299,-0.2934892344002495,-0.2052578289832725,0.0300561829107183,-0.1449496127430928,-0.2069607322611935,5
1.652410431234283,-0.3311122528603929,-0.1803015628134979,-0.0110074873282633,-0.1687073707059735,-0.213856779904145,5
1.6342207674141855,-0.3415393616228876,-0.1614972595688096,-0.0263694366033063,-0.1875497121103817,-0.2122341769401832,5
1.5926183511215095,-0.3638274112925672,-0.1024453261882007,-0.0127800203092449,-0.1856381689319332,-0.2029042281743749,5
1.5632073687669916,-0.3664856958879212,-0.0535866756322142,0.0073086803549515,-0.1648842843490765,-0.1672070161365889,5
1.5566273866739873,-0.3462428670694877,-0.030212671866996,0.029465340197123,-0.1449496127430928,-0.1448962635976012,5
1.5486936814522363,-0.3307035436976543,0.0040586423077653,0.0598938222306072,-0.1157302977285259,-0.1351606591061738,5
1.5386326970281703,-0.3392897861902724,0.0112630472872018,0.0610755076577976,-0.1007110247845973,-0.1306985125860792,5
1.5446309269101093,-0.3366331766324705,0.0130209566556854,0.0445318681153684,-0.0747686556337134,-0.1181233512461759,5
1.5659164001803725,-0.2926701410372199,-0.0026202615091023,0.0008093959848164,-0.056199368816547,-0.1128498999210146,5
1.5705593217776768,-0.2462548504655367,-0.030212671866996,-0.0145525532902265,-0.0488262730605165,-0.1144725028849763,5
1.5769459148522889,-0.2049517745031921,-0.0646596330056846,-0.0154388173606193,-0.0368108600742988,-0.1177177021667283,5
1.5771393038706811,-0.1963638569730218,-0.0702832153097771,0.0102629036033194,-0.0389954846846151,-0.1351606591061738,5
1.580621891357631,-0.2143587853963923,-0.0623747827454197,0.0226706296299944,-0.042818571041512,-0.1444906145181536,5
1.597262857874702,-0.2076100590985462,-0.0505992375162408,0.0129217054948897,-0.0564724502484147,-0.1501697149227624,5
1.5955207715532826,-0.2029082286894984,-0.0442730673564398,-0.0012585583529627,-0.0791379003802416,-0.1582827164502281,5
1.575590606567654,-0.2092465707870534,-0.0330244630190423,-0.0056898883853187,-0.084872529915587,-0.1643674659342844,5
1.57346174220945,-0.2196736795495482,-0.0223042393026386,-0.0101212232578705,-0.0837802176104288,-0.174914368584607,5
1.580621891357631,-0.2438025954891041,-0.0100017531816784,0.0034681930361908,-0.0815955974742169,-0.1692352681799981,5
1.5879754295242052,-0.2673167726469998,0.0137235445113938,-0.0018494059067538,-0.0785917419906103,-0.1558488153273712,5
1.5990049441961212,-0.2440069500704735,0.0233898864442349,-0.030209923922067,-0.07449557867595,-0.1319154598244218,5
1.5986181661593366,-0.1896168057127282,0.0297174963332483,-0.0325732996166438,-0.0739494247604231,-0.1444906145181536,5
1.570752710796069,-0.1838915273592813,0.0300687902611025,-0.0243014822655271,-0.0712186417604756,-0.1672070161365889,5
1.5591430290689758,-0.1982047232428985,0.0325292874852946,-0.005394467028521,-0.0551070609854932,-0.2166963301064494,5
1.565529622143588,-0.2341912300145347,0.0335831692688572,0.006126994927761,-0.0351723938536138,-0.2272432327567718,5
1.57346174220945,-0.2579097617537998,0.0247965018848642,0.0055361473739699,-0.0321685383700072,-0.2199415293882013,5
1.5732683531910578,-0.2609784305494448,0.0186445389597779,-0.0110074873282633,-0.0387224032527473,-0.2154793762219352,5
1.5682370684010805,-0.2742681784886629,-0.0047294648054401,-0.0305053452788646,-0.0501916623234381,-0.2231867286699533,5
1.5604983373536103,-0.2922614318744811,-0.0237094150140555,-0.0375954772027909,-0.0586570703846267,-0.2264319345978768,5
1.5581760839770142,-0.2885813743722801,-0.0254673243825391,-0.0624109340963368,-0.0878763853991936,-0.249148336216312,2
1.5554670525636332,-0.3061659185953596,1.5882679016798576e-05,-0.1152914924885942,-0.1304764892405868,-0.3136466993565897,2
1.58313753375262,-0.4006330114272332,0.0669762486239831,-0.1661040868626807,-0.1536880977620448,-0.3529947597555752,2
1.5974562468930942,-0.4560449286918253,0.1230393041594061,-0.3176556204351348,-0.1763535434197673,-0.3882863160677422,2
1.5873936773131394,-0.5623696123557793,0.2991397827884577,-0.5415855655102517,-0.0955225491647788,-0.3355518028161297,2
1.4308531927039965,-0.6750343131548402,0.5218126219840185,-0.5921027482079323,0.0079738728515148,-0.2884964032614691,2
1.326749664885165,-0.7239035337405082,0.5900025166764745,-0.4966814031123134,0.3730786691503199,-0.2049324802177842,2
1.256701626174044,-0.824502939051015,0.5516898826021771,-0.3770354825583109,0.857518395756742,-0.1375945602290307,2
1.499350948956202,-0.8535380399809884,0.2954483170875635,-0.3291770823914169,1.0724305118314084,-0.0836430997390755,2
1.7027201088222796,-0.8210272361301836,0.0402620730857249,-0.3271091280536378,1.2433771929651165,0.1066067837538338,2
1.7118157333102728,-0.7709318880562994,-0.0370672226477908,-0.3017028284464967,1.1172152492313263,0.2644047076600814,2
1.611581571015176,-0.6130796992113235,-0.0504235905523137,-0.2154395889733667,1.0369304178400736,0.3207900759190649,2
1.505737542030814,-0.5130916826073725,-0.1265233575383398,-0.0349366753112206,0.988595671041022,0.4104387019236055,2
1.384412880639735,-0.3084154940279748,-0.5695841856691962,-0.0857492745255029,0.9618340620686392,0.4826444175119012,2
1.2218725809927644,-0.0152018455515198,-1.0456853594981117,-0.1274037923182757,0.913772392227351,0.4858896234398246,2
1.192846791519143,0.0798783110244618,-1.278375834554368,-0.0328687209734414,0.724802654251777,0.4879178688370624,2
1.2290311449850573,0.0839670776894014,-1.7370793205792243,0.1322722385734659,0.2892438596786638,0.524020729954296,2
1.3178490145714528,0.1389702857912549,-2.011246954518891,0.0959353100432459,-0.0605686135630751,0.5207755306725441,2
1.2872745277948043,0.1559417662702262,-1.901052960051243,-0.1135189595076126,-0.8874476952846841,0.4700692694643409,2
1.2601857988168828,0.2622664499341801,-1.3752134611174929,-0.1932829291311951,-1.6274880762581956,0.4416737607951253,2
1.2383201584914427,0.4491554147466813,-1.0994650045024823,-0.1477879143392698,-1.984946726687833,0.4725031705871977,2
1.03011310285378,0.7047460447629927,-0.9641390969011328,0.1721542040244735,-2.8115529327863733,0.5357845864891327,2
0.3702761127227276,1.0901755356011538,-0.2922534666496293,0.617355345525292,-3.49888912087961,0.2473673798615689,2
0.4819265677265249,1.1421117499449145,0.3318288345586627,0.5263653014208536,-3.6559087742629823,-0.0061639328256185,2
0.5436525380232222,0.8061628683989771,0.2606500620210207,0.262848792890743,-3.8080130289843,-0.0187390875193503,2
-0.3777969947836548,-0.2675211272283691,0.6576654704771494,0.421195027349934,-3.813747658519645,0.8598990782623694,2
-1.786480648494659,-1.4418062032037746,1.5386919250557638,0.1949017065802403,-3.644166433760424,1.4217243958238794,2
-2.373753957519602,-1.8609743004185089,1.719887605367914,-0.4839782508886448,-3.046126366114791,2.666664504472009,2
-2.1169793106153616,-0.4599293407753957,2.4886108621825422,-0.1318351223506317,-2.291339860740784,3.1392468916316267,2
-0.8863150038021567,0.7139470260372712,3.575260882622088,0.3683144689576766,-1.6750035877098528,3.001325852372368,2
-0.7289993779635557,0.461219035197683,3.6531185589765975,1.0920986081852837,-0.0267069857924253,2.998080646444444,2
-0.4778361829044704,0.5677480734430064,2.89863134461534,1.5940207082735942,1.3537005657701222,3.280007687124508,2
0.220700803087485,0.7736520645481725,1.817954760678529,1.859605185662072,1.789532370189434,3.350590806395013,2
0.4776688390101168,0.7399151332091515,1.5035423760613666,2.0622647543261934,2.294180015375568,3.227678816306171,2
0.5676470427068664,0.7938948933666059,1.2757714557242823,1.9573899064522675,2.492707473717489,3.049598212457714,2
0.3017767713146337,0.7264193556510118,1.0464211524410665,1.4090866097849688,2.934273773449016,2.4289535324679625,2
0.2979074057908988,0.613345945689212,0.8149602061323002,0.1310905483060795,3.1229704344668265,1.43064869551024,2
0.9943155274246502,0.7174227289581028,0.190702257960081,-0.7749690714460266,2.92198527903093,0.7179215415624634,2
1.82249765806622,0.5086560986762131,-0.2064887974599748,-2.3025966682786825,1.9288019765771391,-0.8158415025467363,2
1.8480392748970027,0.3753398598959799,-0.3458560249608604,-2.776158463320299,0.8744492118791192,-1.74275197524443,2
1.4800009510257504,0.1042099065078349,-0.674681538724533,-2.7294817727815754,0.5093444200544184,-1.9613974870376427,2
1.121058251642491,-0.2268311150101328,-0.6592159675236723,-2.5070289199698585,0.0033315556213276,-2.303766187386019,2
1.069199876751468,-0.537424953128298,-0.3894423871406087,-2.4293327546379824,-0.4707312242195618,-2.564193361623355,2
1.1843329192422152,-1.1532943851363673,0.7168930508216853,-2.286053033576449,-0.5051390103798429,-2.4351966220504573,2
0.7112241224601701,-1.0136398042585792,0.7871921488104795,-1.9194341907926105,-0.0335339276329288,-1.7228751171821275,2
0.5225620389272397,-0.6797378186014402,0.7836777698027247,-1.4680293460049192,0.3779940633382706,-1.220680373807525,2
0.5862234845637486,-0.3026902156745279,0.9991447642896364,-1.099342476280363,0.5265483086604545,-1.1241356469906607,2
0.7402499119337916,-0.4202611014640063,1.0063506089982854,-0.2780690569801412,0.8266606189955945,-0.9716111478248884,2
1.134023241654219,-0.8451544770321872,0.7919374962949364,0.029465340197123,0.9522763417022924,-0.8815568262176996,2
1.4830983456318043,-1.1827398702666314,0.5537990858985149,0.2876642691450725,1.0844459292917306,-0.6742696680956499,2
1.551015934828833,-1.2426492633589024,0.4676816830517936,0.1742221583622527,1.1106613843485864,-0.4755010808264551,2
1.5128961060231068,-1.093998055788205,0.25871650568861,0.1027300157701786,1.116942172273563,-0.4024840870177787,2
1.479227394952181,-0.8592633183344351,0.0163611284287255,0.0409868021534052,1.0686074254745117,-0.2738929898781564,2
1.4892899645321356,-0.7666370917724381,-0.050950531444095,0.1222278785609758,0.8954761913161565,-0.1290759096221174,2
1.494321249322113,-0.6304598888530337,-0.11738395649728,0.1742221583622527,0.7887028279102841,-0.0475402319756703,2
1.4649086818117067,-0.5930412249742596,-0.1390014906232271,0.2273981381113077,0.5748830912523408,0.0769943544309618,2
1.3977646486882476,-0.5361971506025296,-0.1534117403113126,0.2460097319915161,0.3785402217279019,0.1086350357972431,2
1.3780262875651228,-0.4746512458217515,-0.1627267883162994,0.2333065846080435,0.2870592395424518,0.1017389881542916,2
1.3648694936908912,-0.4429578602964243,-0.1518309176359686,0.2244439197031357,0.1335895866100042,0.0956542320240638,2
1.3261694978299885,-0.4037000051853258,-0.1289838547625318,0.2306477827164732,0.0803394545712105,0.107823737638348,2
1.2671509737907831,-0.2949197164698352,-0.0850461986549293,0.238033335997197,0.0082469498092783,0.1374361935459062,5
1.2514769523656746,-0.2343955845959042,-0.0648352799696117,0.2728931432228412,-0.0103223280596794,0.1463604998784385,5
1.2625064670375907,-0.1900255148754668,-0.0463822706527777,0.2764382091848044,-0.0097761741441525,0.1435209496761341,5
1.2806961308576883,-0.1628312802153702,-0.0274008807149498,0.2581220415015894,-0.0144184913743398,0.1366248953870111,5
1.3002395178065322,-0.1454510905736603,-0.0342554314957446,0.1745175797190503,-0.0157838806372614,0.1062011346743863,5
1.3635141854062565,-0.0675467690580192,-0.0636043114929094,0.1175011223316263,-0.0163300345527882,0.0737491551492098,5
1.4782604498602194,-0.0385116681280462,-0.0936572190749952,0.0516220000392946,-0.013326183543286,-0.0065695819050661,5
1.5541117442789985,-0.048530067727802,-0.1103537587525581,0.0220797917565951,-0.014964649763971,-0.0808035495367711,5
1.6789205783129162,-0.1070106537880393,-0.1607932319838887,0.0084903706223378,-0.0242492886984499,-0.1124442508415671,5
1.7358086528380283,-0.1622182164712622,-0.1778410655893058,-0.0118937562388521,-0.0600224596475482,-0.1741030704257118,5
1.7480000867761871,-0.1798027606943416,-0.1651872855404914,0.0176484568840432,-0.0870571500517989,-0.213856779904145,5
1.7557404029795454,-0.2251946033216256,-0.1337292022469888,0.0377371575482397,-0.0925186936811722,-0.221564132352163,5
1.708524949685826,-0.2714055393119395,-0.0857487865106378,0.0522128475930857,-0.1045341111414942,-0.2398183874505036,5
1.6777586590466735,-0.3129129698556533,-0.0592116976655192,0.0309424469811111,-0.1053533464888889,-0.2564500395848825,5
1.6289976787617042,-0.3646448296180445,-0.0340797845318175,-0.0036219340475395,-0.0998917894372026,-0.2495539852957595,5
1.6195152762369267,-0.3597386446276274,-0.0219529453747844,-0.0606384011153552,-0.0987994816061488,-0.2085833285789837,5
1.594167048424536,-0.3188426027904696,-0.0068386681017779,-0.0656605787015023,-0.1271995567992167,-0.185866920314377,5
1.5630139797485991,-0.2875596014654333,0.0086269030990826,-0.0461627159107051,-0.1512304006680695,-0.1915460273651573,5
1.5181207798314764,-0.3325427349299786,0.0240939140291558,0.0282836499297367,-0.1987458942233091,-0.2065550765355744,5
1.4912254398719471,-0.3738458108923231,0.0441291857505463,0.0903222897435036,-0.2091228454629461,-0.1814047737942824,5
1.4757448074652308,-0.4022678480781881,0.1037066202937241,0.0941627770622644,-0.1927381877302002,-0.1493584101176958,5
1.482516593420739,-0.3767084500690465,0.1175913688192407,0.0389188478156261,-0.1304764892405868,-0.0820204967751138,5
1.5115423828943604,-0.2914440135490035,0.1026527385101614,-0.0296190812084718,-0.0660301661406571,-0.0666057918790776,5
1.5583694729954063,-0.238486026298396,0.069261098884248,-0.0423222285919444,-0.0425454940837486,-0.079992251377876,5
1.5893291526529514,-0.2262180512660248,0.0513350304591953,-0.0364137869354045,-0.0168761929424195,-0.115689450123319,5
1.6390586631857706,-0.2166066857914553,0.0399107791578707,-0.0018494059067538,-0.0272531397079522,-0.129481558701565,5
1.6390586631857706,-0.2086335070429454,0.0462369493176716,0.0123308579410986,-0.037903172379457,-0.1335380627883836,5
1.6295778458168817,-0.2043387107590841,0.0518619713509767,0.0173530355272456,-0.056199368816547,-0.1509810130816575,5
1.602680920701464,-0.1957507932289137,0.0537955276833874,0.018534725794632,-0.0622070797837601,-0.16152791573198,5
1.5759773846044387,-0.2094509253684229,0.0553763503587314,0.029465340197123,-0.0676686323613421,-0.1818104228737299,5
1.5693989876673229,-0.2176301337358544,0.0553763503587314,0.0288744926433319,-0.0671224784458152,-0.1964138229646995,5
1.5697857657041074,-0.2215145458194247,0.0494014741267846,0.0250340053245712,-0.068214786276869,-0.199659028892623,5
1.566883345272334,-0.2229450278890103,0.0383285167533142,0.0200118374188159,-0.0769532757699253,-0.1984420750081088,5
1.5664965672355495,-0.2278528879169797,0.0360436664930493,0.0102629036033194,-0.0886956162724839,-0.1964138229646995,5
1.5748170504940848,-0.2290806904427481,0.0311226720446652,0.0005139746280187,-0.0979802462587541,-0.1960081738852519,5
1.5796549462656695,-0.2072013499358076,0.0423712763820627,-0.0198701522331711,-0.1302034122828233,-0.2073663813406411,5
1.5829441447342278,-0.2022934899078381,0.0492258271628575,-0.0367092082922021,-0.177172778767162,-0.2499596343752071,5
1.56475448091413,-0.2135396920333624,0.0898233114974199,-0.050594050783257,-0.2069382253267342,-0.2824116471312412,5
1.4974170587722786,-0.2761090447585396,0.1922845203646374,-0.089294340487466,-0.2615537555766581,-0.3765224661790771,5
1.436658033567543,-0.3304975140787328,0.2539725979333655,-0.1235633001593191,-0.2905000025816702,-0.5180943471533641,5
1.321138213040011,-0.5159543217840961,0.3072238623167423,-0.1238587263563126,-0.2986923336850953,-0.6008469653919823,5
1.3306190304089,-0.820209817804706,0.4545009621111979,-0.0842721677415148,-0.289134617792853,-0.7026651701186939,5
1.3751238671333497,-0.931851070659368,0.5585429936537594,-0.0414359645215516,-0.16515736130684,-0.5696119065204623,2
1.384412880639735,-1.0383817839422431,0.7836777698027247,-0.0449810304835147,-0.023703134782923,-0.417898791913815,2
1.3536465900005823,-1.0600550948302625,0.8580181876910548,-0.0830904774741285,0.4405288477338562,-0.0552475844236884,2
1.3648694936908912,-1.0021892475516854,0.7604779732722211,-0.1932829291311951,0.9612879081531122,0.2424995776158552,2
1.3538399790189748,-0.8273655782277386,0.4072245739597678,-0.2603437320105214,1.1570846550807543,0.3228183213163027,2
1.3426170753286664,-0.643340927629513,0.1441298973935719,-0.3170647777215396,1.399031457085567,0.3893448899767889,2
1.332167727711927,-0.574433232806781,-0.0052564056972214,-0.3575376246077096,1.5407586263441178,0.467229712615865,2
1.375317256151742,-0.328453968265039,-0.3999869638930852,-0.3699453554745806,1.5735279462837135,0.5398410839297798,2
1.3536465900005823,-0.1086454904389943,-0.8811862188635244,-0.4381878244203137,1.573254864851846,0.722789343808177,2
1.283791940307854,0.0191498245691613,-1.1216094795202107,-0.4281434740882154,1.5006162106484913,0.874096835920063,2
1.102675198804001,0.2536785324040098,-1.6560599988740268,-0.2889996762228281,1.4230622920062113,0.9089826434602096,2
1.084100342103007,0.3164522397105561,-1.981369693900732,-0.0237106395519319,1.0860843955124155,0.944274206418548,2
1.2539925947606632,0.3957870432957827,-2.537787601579137,-0.1826477360855017,0.3556017304311462,0.8874832887726899,2
1.3153333721764642,0.4882089152764103,-2.49367573823682,-0.2833866559230859,-0.1318418785035083,0.8014854646061483,2
1.3184291816266298,0.5442338962851107,-2.2147627568126964,-0.2830912345662882,-1.1061828977162476,0.5576896899486729,2
1.3967961184403976,0.4943429027925959,-1.4973586477782466,-0.2089403046032316,-1.95081202195942,0.3479686307037662,2
1.1961359899877009,0.6202973515308751,-0.97661722998602,-0.1182457157369621,-2.363159418293978,0.3065923182613714,2
0.7888175032003686,0.9196449875235158,-0.89102676803108,0.1697908283298967,-3.2083344951179824,0.2242453225175146,2
-0.1486912439125135,1.056232574643211,-0.1527091524556041,0.4950505553169766,-3.557327741960535,0.047381891877232,2
0.0426798710337977,0.6568985970841718,0.8968592023863459,0.947637196856364,-3.799820697880875,-0.555819804588388,2
0.0339726097384778,0.3651171057148545,0.7314803872029105,0.7777694810801071,-3.6417087366664487,-0.5809701139758515,2
-0.7133269416943353,-0.897090691375948,0.790706527818234,0.758271623129506,-3.563608525411407,-0.2730816917192614,2
-1.124128015968618,-1.974252064961678,1.1146110471335229,0.1960833968476266,-3.2312730177334683,0.6059620566801907,2
-1.3288508989634418,-2.0163725592495,1.2357009122815013,-1.0316908113266576,-2.829849133697567,1.812365555950175,2
-1.5951079483924588,-0.6588802510013464,1.1741899214059128,-1.4299198941741096,-2.6812948883753838,2.372973819934598,2
-0.843358864380734,1.666787112498125,2.477537904809072,-0.7344962439206401,-2.275501356923565,2.611901739176987,2
-0.555429563644669,1.334111254329202,3.1824638807586347,0.6498517818965552,-1.0958059464766106,2.31374890147331,2
-0.7121650224280929,0.385359934533288,3.4387054462732487,0.9730434964635052,-0.269199928290452,2.455726444819388,2
-0.2158368621918612,0.6998381847350233,2.5942351561296606,1.4921002240137171,1.2171617379082604,2.9976749973649968,2
0.1003430867883677,0.7511596602971238,2.0905401322136385,2.0672869319123404,2.0918293364536207,3.368845061493354,2
0.4521272221793341,0.5589558013314666,1.3125032671232355,2.2179522110947936,2.364634053916815,3.379391964143677,2
0.3116459518761961,0.5004768903087816,1.0852607274071453,2.117804114610021,2.7936390507187534,3.113285284085268,2
0.1454280905679944,0.4469058393140659,0.9411481524218028,1.36034196006827,3.157924374542634,2.2979285474978264,2
0.3636977157856117,0.3765676624217483,0.6063477624261833,0.5934261575423349,3.1674820904348766,1.6180591484319324,2
1.288823225097831,0.2493854111577006,0.2212835461631606,-1.2021493746567056,2.6054885480905745,-0.0122486823096749,2
1.5109622158391836,0.1328362982750693,0.0464140360108113,-2.273645302709578,1.7076090725774962,-1.3975437246937492,2
1.353451615826302,-0.1131446413042249,-0.4096533058259263,-2.5025974398914297,1.3293966538917146,-1.849843604711617,2
1.017148112842052,-0.3239548173998083,-0.6309195295808576,-2.6854638744540296,0.7627604498111916,-2.425866673284649,2
0.9368457006884726,-0.5570530431650711,-0.540409512906746,-2.63169705199138,0.2370860131004022,-2.7962252265766216,2
1.171174540212095,-1.1060616762392068,-0.0915494555078699,-2.520027493550325,-0.006226164745019,-2.764990167705102,2
1.0275974604587914,-1.2559406863356724,0.4991412060745088,-2.346614566606228,-0.1730766109783973,-2.198702809962242,2
0.8383536247147956,-1.193575688191865,0.7683864058365787,-1.8618268761710035,0.1002741127548812,-1.4393256862155916,2
0.5061144614285614,-0.8619216029297893,0.8843810693014587,-1.6003783074580846,0.3048092865381193,-1.1241356469906607,2
0.5413302846466258,-0.7515064775633435,0.8653996793636308,-1.0508932527606574,0.5292790871862978,-0.8178697545901455,2
0.9890908536162806,-0.810189743167398,1.0502868253766755,-0.4325748041205714,0.5923600612902448,-0.6787318146157445,2
1.3017882151095592,-1.0095510375936394,1.1181254261412774,-0.2272564529256629,0.6349601740798467,-0.5777249146940996,2
1.3555804801845055,-1.0653716640209705,1.0719043595026223,-0.0488215178022754,0.7400950041534691,-0.3826072156631334,2
1.3317809496751425,-1.11771658752747,0.9265608160405776,0.0093766346927307,0.8233836910283286,-0.2422522885733605,2
1.240254048675366,-1.0541254618954463,0.7068754149609902,0.0442364419183748,0.8422260458550499,-0.1761313224691211,2
1.2089075909810365,-0.933896291510614,0.5878933133801367,0.1488158781158951,0.8195606001973275,-0.0670114409585251,2
1.1574359941267978,-0.7318767124890181,0.4165396219647546,0.2014009957905713,0.7936182265723393,-0.0406441909788904,2
1.093194381435112,-0.6611298264339617,0.2998423706441662,0.2421692446727554,0.7458296336888146,-0.0065695819050661,2
1.049656489802624,-0.6171684658762633,0.2703164039538617,0.2947544010689988,0.7327219083974388,0.0526553432023933,2
1.018116643089902,-0.5595069731790557,0.1305964427959094,0.3183881676951584,0.7452834797732877,0.0855130050378749,2
1.1077064835939785,-0.478535657905322,-0.0259942652743204,0.2950498224257964,0.7250757312095405,0.1427096448710675,2
1.1533732395846703,-0.4129009864596044,-0.0755555036860154,0.2823466508413443,0.6349601740798467,0.195849813848299,2
1.2568950151924363,-0.2871508923026945,-0.1687031042774587,0.2802786965035651,0.5817100330928443,0.2177549173078392,2
1.3046906355413326,-0.2151762037218697,-0.2224813095526168,0.2811649654141538,0.4599173609502086,0.2343865760883896,2
1.4027943483223364,-0.1254126163365961,-0.2778417772323314,0.3124797260386185,0.3302055107216849,0.1662373512945693,2
1.4865809331187547,-0.0671380598952805,-0.2992836643943513,0.3369997615753668,0.2673976314719186,0.1139084871224044,2
1.5127027170047145,-0.106395915006379,-0.3071920969587087,0.3898802860862529,0.1704550788124693,0.0526553432023933,5
1.5394062531017396,-0.1765314123548794,-0.3223063742317151,0.381903885251738,0.1289472693798169,0.0368349892269095,5
1.5459846500388557,-0.1683522039874479,-0.3085972726701256,0.3204561220329376,0.0560355382186987,-0.0171164845553886,5
1.5699791547224995,-0.1566972926991847,-0.3152761764869933,0.2120361888362648,0.0137085023868603,-0.0848600469774182,5
1.6003586673248678,-0.1667156922989407,-0.3382988863243572,0.159155649804791,-0.0064992417027825,-0.1059538589242347,5
1.6082923725466185,-0.1746905460850029,-0.325996400203397,0.1056842390185465,-0.0567455272061782,-0.1165007549283856,5
1.6177731899155074,-0.1595599318759081,-0.3100038881107549,0.0646205736197607,-0.1108148990664709,-0.1197459542101376,5
1.618548331144965,-0.1579234201874009,-0.2599157088072787,0.0501448884151106,-0.1394880512173022,-0.1246137564558513,5
1.597262857874702,-0.1798027606943416,-0.1899679047463389,0.0445318681153684,-0.1804497067344277,-0.126236359419813,5
1.5839110898261894,-0.1867541665360046,-0.1593880562724718,0.0250340053245712,-0.1870035537207505,-0.1144725028849763,5
1.572881575154273,-0.1877759394428515,-0.1054327643041741,0.0138079695652825,-0.1837266257534848,-0.1136612047260813,5
1.58313753375262,-0.1986134324056373,-0.058156376152744,-0.008348690276889,-0.1842727796690117,-0.1246137564558513,5
1.5844912568813665,-0.2055648382473004,-0.0284547624985124,-0.0198701522331711,-0.1984728172655456,-0.143273667279811,5
1.5775260819074657,-0.2153805583032391,0.0170637162844339,-0.0195747308763735,-0.1995651295707037,-0.1465188599153914,5
1.5591430290689758,-0.2190606158054401,0.0402620730857249,-0.0077578427230978,-0.1839997027112482,-0.15057536400221,5
1.5624322275375335,-0.2286703062424573,0.052388912242758,0.0158759239030617,-0.1550534870249664,-0.1672070161365889,5
1.5664965672355495,-0.2849013168700792,0.0824418198248438,0.0265111169487551,-0.1378495849966172,-0.1688296191005506,5
1.568043679382688,-0.2983954193906666,0.0856049049047442,0.0108537463169146,-0.0927917706389356,-0.1530092651250668,5
1.588555596579382,-0.2628176217817692,0.0724241839641485,-0.0092349543472818,-0.0703994108871852,-0.1440849587925346,5
1.6156459107131915,-0.2135396920333624,0.038856897374308,-0.0316870355462509,-0.0403608694734323,-0.1444906145181536,5
1.626675425385108,-0.2010673624196219,0.0218090637688909,-0.0278465482274902,-0.0368108600742988,-0.1655844198187986,5
1.6363496317723891,-0.2117005008010382,0.0012454114265065,-0.0201655735899688,-0.0419993356941173,-0.171669169302855,5
1.6371247730018474,-0.2117005008010382,0.0035302616867714,-0.016325086271208,-0.0624801567415236,-0.1663957179776937,5
1.622611085687092,-0.1986134324056373,0.0068704334598115,-0.0278465482274902,-0.0829609867371385,-0.1607166175730849,5
1.594553826461321,-0.1734627435592345,0.0098578715757849,-0.0251877463359199,-0.086510996136272,-0.1603109684936374,5
1.5875886514874205,-0.1665113377175712,0.0151301599520232,-0.0021448224233555,-0.086510996136272,-0.168423970021103,5
1.583524311789405,-0.1806201790198191,0.028486527856546,0.0067178376413563,-0.0895148471457743,-0.1923573255240524,5
1.584297867862974,-0.2119048553824075,0.0305957311528839,-0.0036219340475395,-0.0919725397656453,-0.20371552633327,5
1.5899093197081284,-0.2233554120893014,0.0269057051812021,-0.0452764518403123,-0.1028956449208092,-0.2085833285789837,5
1.5962959127827403,-0.2159936220473472,0.0109117533593476,-0.0910668734684476,-0.1296572583672964,-0.2098002824634979,5
1.5881688185425973,-0.1810288881825579,-0.0012136460684729,-0.1043608732459072,-0.1501380883629113,-0.2223754305110581,5
1.5794615572472774,-0.1552651355920468,0.0015981450835732,-0.089294340487466,-0.202568980580206,-0.2848455549002696,5
1.523925620695023,-0.1397258122202134,0.0277839400008376,-0.0677285330392815,-0.2334267573413536,-0.348532606589309,5
1.534761746348547,-0.2241728304147787,0.0492258271628575,-0.1829431574422993,-0.3251808656997147,-0.5874605125393555,5
1.547726736360275,-0.234805968796195,0.1518626829940022,-0.5309503676243624,-0.4486119324773662,-0.8701986187623105,5
1.5332146342014084,-0.3204791144789768,0.1682064890144984,-0.6854561728471434,-0.4794697092385138,-0.9594416488567756,5
1.4879346562475009,-0.6372069401133275,0.0929863965773204,-0.7779232898541987,-0.5958008243294632,-0.8478878662233228,5
1.5219917305110997,-0.7116355587081369,0.1453594261410616,-0.5342000122295278,-0.7743935439538352,-0.4600863759304188,2
1.5823639776790508,-0.6288233771645265,0.4799841691727538,-0.4296205857123993,-0.8325590836028925,-0.2852512039797171,2
1.3673851360858795,-0.6143058266995399,1.407056043426096,-0.2331648994223987,-0.6744471895000312,-0.0483515301345654,2
1.1009346976384702,-0.567481826965118,1.905652986200594,-0.1844202690664833,0.2988015800450104,-0.0426724430222997,2
0.6762001031046097,-1.0216146580446417,1.6061792318925114,-0.3014074070896991,0.9716648549186448,-0.1254250612609179,2
0.656269938118981,-0.8698964567158515,1.0016052615138284,-0.3658094467990223,1.941363547952988,-0.1416510643158492,2
0.7545686250742658,-0.5503059919047774,0.7237476016024802,-0.3203144223267051,2.391395662889198,-0.1384058650340973,2
1.0858408432685382,-0.5993795670718146,-0.0803008511704724,-0.3330175697101777,2.439730409688249,-0.1075764552420249,2
1.2905653114192506,-0.6308685980157724,-0.8173889379984585,-0.2308015188876261,2.209798886446525,0.2388487226084842,2
1.2510901743288898,-0.5151369034586185,-1.032328991593589,-0.1129281167940174,1.836774804683328,0.5950095049504207,2
1.0337890793591225,-0.2192649703868094,-1.3412948805997982,-0.0065761572959074,1.6729282094594513,0.6789791302429253,2
1.0243082619902333,0.0318265087642714,-1.7838287678388731,0.3647694029957135,1.29389655990038,0.7264401921693766,2
1.1707877621753102,0.0825365956198158,-1.9903320082486524,0.5257744538670625,0.6494332886341441,0.7722786577780377,2
1.4389802869441397,0.1299736590983458,-2.1857637310141738,0.4123323624450262,0.2108705580435463,0.78282556042836,2
1.450783357689625,0.2158511593624968,-2.0746915017268903,0.0811642034817982,-0.7817666397098655,0.7094028843093787,2
1.4279507722722231,0.5319659212527394,-1.5066736957832334,0.0303516042675159,-1.2481833452672564,0.6335462671905111,2
1.2408358008864313,0.5757229272290686,-0.8073713021377633,0.1192736553126079,-2.0327353195713576,0.4144951993642525,2
1.1160269668525138,0.5493461108944494,-0.5374220747907726,0.3650648243525111,-2.6452486404685214,0.1792181550677487,2
0.6152476888814817,0.5675437188616369,-0.3534131635973636,0.5739282608701664,-2.956283818831296,0.0733434994235907,2
-0.0196262663180763,0.4323882888490792,0.2385055870032923,0.9107094304527448,-3.451373609427953,-0.1700465663388932,2
0.051000354292333,0.3810651382494267,0.4588950156678006,0.4477830172244615,-3.5931009129096334,-0.3688151137310589,2
-0.2824007282601434,-0.0826773832671139,0.6975603669560032,0.1813122902861789,-3.646624135328504,-0.2686195385529952,2
-1.3385266905066118,-1.497218120468367,1.0650498087218276,-0.1923966650608023,-3.5980163115716888,0.6234050136196362,2
-1.764033255958153,-1.5933200499511957,1.220762281972422,-0.3501520713269858,-3.3112847721669576,1.9401453416385597,2
-1.8267277565027005,-0.2356233871216726,1.904247810489177,-0.1486741832498585,-3.1384266149663667,2.267099137705754,2
-1.2971176632323276,0.2745361000041035,2.842566849350704,0.4678717227288539,-2.5081636542170287,2.4155670796153355,2
-1.101295430551216,0.1438781458192243,3.295998046999322,1.0170613947910505,-1.291602693404253,2.5409129641808628,2
-1.001254657274512,-0.0211314784863361,3.285100736589779,1.1665449837061177,-0.5234352112910373,2.655711952742239,2
-0.4925416740817292,0.0635198942895986,2.5121605129116875,1.4005193710770547,0.7387296148905476,2.957515638807116,2
-0.1301163872115197,0.1579869871214721,2.174021390872241,1.6776251652159373,1.4795892312114538,3.250800873650226,2
0.4970188369405685,0.2201459556463581,1.6151415462404315,1.779841216038489,1.7340976045921157,3.267432532430776,2
0.7917199236321418,0.3078643221803858,1.280165509280885,1.5538432972648093,2.149448722187151,3.06339032103596,2
0.8439650765599499,0.5980109768987479,1.151342858532476,1.0528074709272834,2.5142806070700527,2.495480154297821,2
0.883053435613526,0.9110570699933456,0.8840297753736044,0.8238553289052359,2.637165555725012,2.103622139979584,2
0.9767076158156182,0.9576783901839504,0.6954511636596655,0.2835283604695142,2.573811535982032,1.1617026646346733,2
1.4382051457146816,0.9995945298904026,0.3244473428860865,-0.053548269191429,2.3370532095970376,0.6051507585212956,2
1.5800417243024545,0.7116974506046558,0.0806839104563602,-0.6695033760183094,1.623501154829346,-0.5180943471533641,2
1.460264175058514,0.5554800984106351,-0.0291587900834334,-1.0148517552676268,1.081715150765887,-1.3805064168337513,2
1.1518245422816435,0.0467527683919967,-0.3442752022855164,-1.1909233340572212,0.9399878472842068,-1.7111112672934627,2
0.8369999015860493,-0.4591119224499181,-0.529162348298561,-1.738340434416869,0.7586642864965313,-2.2733424266733944,2
0.7141265428919434,-0.7909703622933634,-0.4738018806188463,-2.351045896638584,0.5571330084638387,-2.721991258944917,2
0.9118842509128668,-1.5139835713284169,-0.3451534371051519,-2.563159122967281,0.4383442275976443,-2.753226317816437,2
1.1239606720742643,-1.5291158605750634,-0.1945376052668688,-2.8538544786061024,0.2226128940720005,-2.392197713290272,2
1.2224527480479417,-1.3669688754462264,0.0624065481034532,-2.909689260246728,0.1253972599806834,-1.819419843998992,2
0.787850558108407,-1.2383561421125933,0.6460655722118976,-2.736276478508508,0.2338090806590322,-1.460825140595684,2
0.4979873671884185,-0.6605167626898536,0.7117964094093742,-1.8376022619910528,0.5899023597221651,-0.8912924307091269,2
0.6750397689942557,-0.5458068410395467,0.8385098568614455,-0.9649254152835416,0.7695873916516952,-0.7456640323556782,2
0.9687739105938672,-0.7670474759727292,0.9611834241431932,-0.6925462999308738,0.8495991460851847,-0.6921182674683714,2
1.0765534149180414,-0.9314423614966292,0.8668062948042602,-0.3581284673213049,0.9773994889280948,-0.4921327396070054,2
1.124927617166226,-0.921219607315504,0.8226929917327306,-0.1285854777454662,0.9902341372617072,-0.2426579376528081,2
1.191686457408789,-0.8578328362648496,0.6534470638844737,-0.005394467028521,0.9626532929419294,-0.136377612990688,2
1.1876221177107733,-0.7607074588376219,0.4775236719485617,0.2569403512342031,0.8616145590714025,0.0129016204316171,2
1.188008895747558,-0.771749306381777,0.4207565888282177,0.4105598294640447,0.7346334515758872,0.1228327934549367,2
1.1574359941267978,-0.7476220654797731,0.3880675370580129,0.4291714233442531,0.6868449302780317,0.1824633609956721,2
1.1247342281478336,-0.6803508823455483,0.3446582615714042,0.3777679765761796,0.6420601928781136,0.2713007619492044,5
1.103450340033459,-0.5034819921703554,0.2474693410804249,0.3795405095571612,0.5975485369100634,0.3203844268396174,5
1.1531798505662785,-0.333770537455747,0.1780484779112665,0.3742229106142166,0.5732446250316559,0.324846573359712,5
1.1707877621753102,-0.2759046901771701,0.1413181062415256,0.3189790152489495,0.5216329144725038,0.306997967340819,5
1.194975655877347,-0.1742818369222641,0.0710175685235191,0.2897322234828517,0.4929597578475682,0.2960454156110489,5
1.2361912941332387,-0.1225499771598728,-0.0063117272099966,0.2610762599097614,0.4320634396726677,0.2721120601080995,5
1.2727624256359378,-0.0855400224438374,-0.0289831431195063,0.2708251888850621,0.3457709375811404,0.2526408511252447,5
1.325200967582138,-0.0239941176630595,-0.0646596330056846,0.2835283604695142,0.2974361907820889,0.2343865760883896,5
1.358482900616279,0.004223564941436,-0.0771377660905719,0.2796878537899699,0.2105974766116785,0.1418983467121724,5
1.390024332484889,-0.0008886496679027,-0.0926033372914326,0.2179446304928047,0.1617165937935173,0.0238541721613871,5
1.4591038409481605,-0.0127479155375351,-0.1556965905715775,0.1724496253812711,0.1415088407556659,-0.0191447365987979,5
1.5455978720020709,-0.0260393385143055,-0.1697569860610213,0.148225030562104,0.0969971803135112,-0.0739074952476481,5
1.5829441447342278,-0.0475082948209552,-0.1940106643750875,0.1372944161596129,0.071874046510022,-0.1254250612609179,5
1.6466055903707366,-0.1160072804809484,-0.2613223242479081,0.1198644980262031,0.065593254110941,-0.1639618168548369,5
1.7367771830858785,-0.1718279069082793,-0.3226576681595693,0.0838230005331726,0.0587663122704375,-0.2507709325341022,5
1.7615452438430916,-0.2143587853963923,-0.342868586844887,0.0985941070946203,0.0483893610308005,-0.3026941542729911,5
1.76928556004645,-0.3270218111579011,-0.3486678161129066,0.1107064166046936,0.0388316496126624,-0.3071563074392572,5
1.7776060433049854,-0.3920450938970629,-0.3265247808243908,0.0870726451383381,0.0044238634523814,-0.2698364924375094,5
1.7623187999166614,-0.3875459430318321,-0.3024467494742517,0.0256248528783623,-0.0592032243001536,-0.2162906810270018,5
1.699624299372114,-0.3595326150087058,-0.2071913853156832,0.0058315735709634,-0.0892417701880108,-0.1947912266469093,5
1.6367364098091743,-0.3245678811439164,-0.1223049509456641,-0.0482306750886802,-0.1288380230199018,-0.1594996703347423,5
1.5926183511215095,-0.2973736464838198,-0.074852915830307,-0.0789545687985702,-0.1463150020060144,-0.1578770673707805,5
1.5353434985596124,-0.2585245005354602,-0.0015663797255396,-0.0656605787015023,-0.1422188297431454,-0.1631505186959418,5
1.5045756227645717,-0.2834691597629413,0.0437778918226921,-0.0077578427230978,-0.1214649272638713,-0.1700465663388932,5
1.5034152886542176,-0.3088242031907136,0.052388912242758,0.0318287158916998,-0.0968879384277004,-0.1769426206280162,5
1.5221851195294922,-0.3245678811439164,0.0578368475829234,0.022966050986792,-0.0878763853991936,-0.1830273701120726,5
1.5372773887435356,-0.3198660507348685,0.0594191099874799,-0.0021448224233555,-0.0734032663707918,-0.1728861165411976,5
1.5554670525636332,-0.2840822235070496,0.0265544112533478,-0.0290282336546807,-0.0564724502484147,-0.1400284613518875,5
1.5686254315937531,-0.2307155270937033,-0.013340485225506,-0.0384817412731837,-0.050737816238965,-0.1388115141135449,5
1.5796549462656695,-0.2192649703868094,-0.0279278216067311,-0.0284373909410854,-0.0436378019148024,-0.1546318680890286,5
1.6036478657934257,-0.2202884183312085,-0.0451513021760754,-0.0118937562388521,-0.0422724126518808,-0.1582827164502281,5
1.617386411878723,-0.2088378616243148,-0.0504235905523137,-0.0124845989524473,-0.0439108788725658,-0.1566601134862663,5
1.6233862269165502,-0.1971829503360517,-0.0528840877765057,-0.0305053452788646,-0.0553801379432566,-0.1594996703347423,5
1.6249333390636886,-0.1949333749034364,-0.0623747827454197,-0.0532528478346314,-0.0764071218543984,-0.1745087195051594,5
1.6349959086436432,-0.1994308507311147,-0.0713385368225523,-0.0656605787015023,-0.0895148471457743,-0.1801878199097682,5
1.6415743055807592,-0.1969785957546822,-0.0757311506499425,-0.0919531423790363,-0.1312957201138771,-0.182621721032625,5
1.6448635040493174,-0.1943203111593281,-0.0822344075028831,-0.1191319798073549,-0.2072113022844976,-0.1907347225600907,5
1.6466055903707366,-0.1998412349314057,-0.0708101562015584,-0.1268129447644846,-0.2569114338723665,-0.1947912266469093,5
1.63209348821187,-0.2041343561777148,-0.0579807291888169,-0.1253358331403006,-0.3694194133912714,-0.2004703270515181,5
1.585653176147609,-0.2022934899078381,-0.0087722244341887,-0.1022929140679322,-0.4854774157316226,-0.2195358803087538,5
1.557402527903445,-0.1703957498011416,0.0743577402965592,-0.0718644417148398,-0.5414583352444681,-0.23495058520479,5
1.5446309269101093,-0.2020891353264688,0.1240946256721813,-0.073932396052619,-0.6501432776216236,-0.2884964032614691,5
1.486774322137147,-0.3511507270974571,0.3126717976569077,-0.2033272843034893,-0.7397126808357907,-0.3781450691430388,2
1.404149656606971,-0.4495005569753487,0.5956260989805671,-0.3439482083136482,-0.7525473336435073,-0.4410208492578693,2
1.349582250302567,-0.474855600403121,0.7601266793443671,-0.4751155908239329,-0.6588817626405756,-0.5148491412254406,2
1.1344100196910036,-0.5069576950911869,1.176650418630105,-0.3693545079207895,-0.4649965946842164,-0.5124152401025838,2
0.880924571255322,-0.8882984192644082,1.5402727477311078,-0.0151433960038217,0.3853671635684054,-0.4901044875635961,2
0.8224877994271828,-1.1661770989503992,1.398620669969957,0.2025826812177617,1.6658281906611845,-0.2102059315429455,2
1.0761666368812568,-1.1823294860663407,0.6107403762535736,0.0906177111003012,2.113948628195816,0.0550892443252501,2
1.370287556517653,-0.7130660407777225,0.5334110805200577,0.1556105838428278,2.3963110615512533,0.4619562612907038,2
1.2936611208694162,-0.6715586102340088,0.3826196017178475,0.1839710873375533,2.4391842512986184,0.6493666211659949,2
1.1882022847659504,-0.4758773733099679,-0.4597414851294026,0.0365554672808534,2.438911174340855,0.7167045876779492,2
1.172723237515122,-0.1329787609599196,-1.239887553516143,-0.0384817412731837,2.272333666368006,0.765788252568362,2
1.1268630925060377,-0.1176421171319034,-1.584529932408531,0.2652121685853198,1.8294017089272967,0.6753282752355543,2
1.107513094575586,-0.0372855406398299,-2.130227616370532,0.3931299258512226,1.5104470034984971,0.6088016068824951,2
0.9411034294048808,0.1921326276232318,-2.3421802318496887,0.4439425299057008,0.7559335079706881,0.5021156264947559,2
0.7874637800716223,0.337512486854467,-2.2427064610984444,0.2356699603026202,0.0516662934721705,0.44613590731522,2
0.5744188286623747,0.5184701436945998,-2.048505706809625,0.1307951269492819,-0.2265998155008501,0.4007030974321781,2
0.5943505788038916,0.5528218138152811,-2.0142343926348643,0.0055361473739699,-0.7244203309340985,0.2777911605127083,2
0.6849089495558179,0.5722472243082369,-1.9453404703574877,-0.1430611629501162,-1.282864208385301,0.1751616576271016,2
0.8549945912318662,0.6750962050513593,-1.6242491819234577,-0.2467543157164601,-1.5766956323651689,0.1244553897727269,2
1.015019248483848,0.6992251209909153,-1.346215875048182,-0.3743766855069365,-2.1741895460952745,0.0295332792121675,2
1.222839526084726,0.5659088822106819,-0.9463886754400072,-0.3005211381791103,-2.5010636354187614,0.023042874002492,2
0.5061144614285614,0.9251659112955932,-0.5622026939966202,0.2734839907766324,-3.266500034767039,0.0583344502531736,2
0.0676413208094036,1.1558118820844236,-0.2465593409027558,0.872599978621935,-3.8047360965429298,-0.3185145016023033,2
0.0802195327843469,0.7405281969532596,0.1207544538991412,0.6663954165987886,-3.923524877409124,-0.5943565668284784,2
-0.0674218866669725,-0.0834964766301437,0.7051175055925065,0.0885497567625221,-3.982236575447813,-0.5262073486808297,2
-0.3518670147601989,-0.5824080865928433,1.096509331744543,0.1195690766694055,-3.521281489579569,0.6943938351389616,2
-1.8100867899856303,-2.305701795642385,1.306000010270295,-0.0916577210222387,-3.144707402891343,1.6423981596605013,2
-1.9099325890880527,-0.2112901166007472,2.087201400169812,0.0971169954704363,-2.648525572909892,3.1051722825578025,2
-1.1231594857207678,0.6977929638837774,2.707767882641136,1.002290288229603,-1.9292388886068552,2.970902091659743,2
-0.1904886343794707,0.182727291767584,3.124467268890801,1.3898841731911653,-1.2853219099533806,2.8090476968975344,2
-0.029688835898031,0.034280438778256,2.404075721740377,1.824154530882636,0.0404701158333475,2.914111074321312,2
0.165746618746296,0.1614626900423037,2.0840383150899107,2.130802683350291,0.8534222324420816,3.171293248662042,2
0.5622289798801045,0.2129885201857734,1.7283229788240528,2.259902150244364,1.123222955724435,3.226867518147276,2
0.7207065249849478,0.2072632418323265,1.6021364722637628,2.324599591949701,1.5702510138423438,3.110040084803516,2
0.8770536205756987,0.1898830521906165,1.390710797676387,1.980137409008034,2.028748398142508,2.7607753301660165,2
0.6994210517146846,0.5759272818104378,1.0741892097628871,1.701849779395888,2.276156757199007,2.505215758789248,2
0.6392421935651259,0.624387793233367,0.7994946349314396,0.9940184660382904,2.6379847865983024,1.7791022450352465,2
0.8453203848445846,0.6221382178007516,0.3233920213733114,0.5367050731097495,2.674850269852559,1.284614654723515,2
1.1102221259889673,0.5025221111600275,-0.0342554314957446,-0.4966814031123134,2.4566612213365224,0.1195875875270132,2
1.1109956820625364,0.3516213281567148,-0.2746786921524309,-1.367585828163349,2.105210143176864,-0.8815568262176996,2
0.947875215360389,-0.0250158905699064,-0.8411156754207434,-1.8508962569283167,1.9225211886521625,-1.26124528175228,2
0.7276716999588484,-0.5110481367936788,-1.0551760544670257,-2.7037800469774407,1.5298355211889538,-1.946794086946673,2
0.6032512291176038,-0.8858444892504235,-1.0411170987067946,-3.100236524240972,1.2024155463961996,-2.5820419676422484,2
0.8224877994271828,-1.6718374352109444,-0.9680047698367418,-3.044992590154138,1.0309227068728604,-2.6733132431339515,2
1.0964835799036698,-1.4892432666823048,-0.6407615184776257,-2.834652042012299,0.7114219191142027,-2.175986401697635,2
1.038240197093923,-1.3056273252468178,-0.3038533649148811,-2.139228241712757,0.6655448738832308,-1.1484746515730575,2
0.4937296384720105,-1.56898677943027,-0.0170319509264003,-1.6340564292565385,0.7392757688060745,-0.5647441109209203,2
0.8333223399248183,-1.5514022352071908,0.0497527680546388,-0.7699468938598795,0.7392757688060745,0.2558860570531682,2
1.2164545181660025,-1.4585716540638245,0.108451967778181,-0.4308022711395898,0.6215793673566031,0.4205799554944803,2
1.2926925906215665,-1.0418574868630748,0.169964398382982,-0.4216441848778844,0.5754292451678678,0.3816375441749423,2
1.1779479113234916,-1.0964519858021895,0.1783997718391208,-0.3554696702699304,0.5352867936794066,0.145954850798991,2
1.1580161611819748,-1.241831845033425,0.1921088734007104,-0.165808665505883,0.5437522017405951,-0.0069752309845136,2
1.043464870902293,-1.289473263093324,0.1230393041594061,-0.0627063554531344,0.5601368639474453,0.00884512299097,2
0.9672252132908402,-1.199300966545312,-0.0576294352609627,0.0832321578195774,0.5647791811776326,0.1244553897727269,2
0.9517445808841236,-1.1723110864665849,-0.0931302781832139,0.0288744926433319,0.5093444200544184,0.2226227195535528,5
0.9231071546031756,-0.9447337844733996,-0.0716898307504065,-0.0121891775956497,0.4877712822277497,0.2498013009229403,5
0.9453595729654004,-0.7879033685352708,-0.1312687050227967,-0.089294340487466,0.4421673139545412,0.2733290073464421,5
0.9836727907895184,-0.7120442678708757,-0.1593880562724718,-0.0792499901553678,0.3771748324649803,0.3175448699911414,5
1.0662974563196943,-0.5137047463514808,-0.2261713355242985,-0.0476398275348891,0.3403093805294541,0.3447234314220144,5
1.1063527604652323,-0.440095221119701,-0.2368929989699148,0.051326578682497,0.2518322046124631,0.3852883925361418,5
1.1239606720742643,-0.4296681123572062,-0.2375955868256232,0.1313859696628771,0.1942128188789326,0.4335607592676597,5
1.17601243598368,-0.3491055062462111,-0.2607939436269142,0.1319768172166682,0.1688166125917843,0.4473528611997342,5
1.2338690407566424,-0.2581157913727214,-0.2599157088072787,0.1337493501976498,0.1038241221540147,0.4088160989596437,5
1.2748912899941416,-0.2370538691912583,-0.2732720767118015,0.1325676599302634,0.0631355570169656,0.3390443310174055,5
1.344744354530982,-0.1961595023916525,-0.286805531309464,0.1278408988607181,0.0412893467066378,0.3009132178567625,5
1.3892491912554317,-0.1755079644104803,-0.2848719749770533,0.1355218831786313,-0.006226164745019,0.2205944675101435,5
1.483485123668589,-0.1722366160710181,-0.2716912540364575,0.1361127258922266,-0.0551070609854932,0.1427096448710675,5
1.5632073687669916,-0.1898211602940975,-0.2423409343100802,0.1364081472490242,-0.07777251111732,0.1098519896817573,5
1.594747215479713,-0.2045430653404535,-0.2277535979288551,0.1077521933563257,-0.1135456731182097,0.0530609989280124,5
1.6135170463549875,-0.1800071152757111,-0.1943619583029417,0.0935719343486691,-0.1296572583672964,-0.0069752309845136,5
1.6313183469824124,-0.16692004688031,-0.16923004516924,0.090026868386706,-0.1304764892405868,-0.0361820444587958,5
1.6442833369941403,-0.1714191977455407,-0.1476125110432929,0.0873680664951357,-0.1392149742595388,-0.0856713517824848,5
1.6473791464443055,-0.2470739438285663,-0.0920763963996512,0.0619617765683863,-0.1487726990999898,-0.079992251377876,5
1.6193218872185344,-0.2519801288189836,-0.0514789120650889,0.0259202742351599,-0.1495919344473845,-0.0597097375899546,5
1.5887489855977743,-0.1346135976108747,-0.0272252337510227,-0.0408451169677605,-0.1449496127430928,-0.0353707396537292,5
1.5775260819074657,-0.0818599649416365,-0.0198437420784466,-0.0210518376603616,-0.1389418973017753,-0.0787752974933618,5
1.5800417243024545,-0.0311515531236443,-0.0198437420784466,0.0303516042675159,-0.1397611281750657,-0.1221798553329944,5
1.5827507557158351,-0.0618214907045723,-0.0203706829702279,0.1585648070911957,-0.147680391268936,-0.2016872742898607,5
1.5674635123275111,-0.200045589512775,-0.0050807587332943,0.2043552141987433,-0.1528688668887545,-0.2284601799951145,5
1.5483069034154515,-0.2828560960188332,0.0142519251323877,0.1816077116429765,-0.1454957666586197,-0.2203471784676489,5
1.5426954515702975,-0.2761090447585396,0.0056394649831093,0.0684610609385215,-0.1091764328457858,-0.1838386749171392,5
1.5426954515702975,-0.2294893996054869,-0.0203706829702279,-0.0393680101837724,-0.0657570891828936,-0.1724804674617501,5
1.5550802745268486,-0.1822550156707741,-0.0442730673564398,-0.0627063554531344,-0.0463685759665412,-0.1850556221554819,5
1.5664965672355495,-0.1722366160710181,-0.050950531444095,-0.0511848934968522,-0.016603115984656,-0.217913277344792,5
1.5786864160178196,-0.1963638569730218,-0.0632530175650552,-0.0204609949467664,-0.0089569387967578,-0.2308940877641429,5
1.5697857657041074,-0.2176301337358544,-0.0665931893380953,-0.0080532689200913,-0.0135992605010494,-0.2377901354070943,5
1.5575959169218374,-0.240120862949351,-0.0643083390778304,0.0087857919791354,-0.0299839182337953,-0.2544217875414732,5
1.527023015301077,-0.3002362856605433,-0.0555202319646249,-0.0062807310989139,-0.0458224220510143,-0.263346087227834,5
1.507671432214737,-0.340108879553302,-0.0553445850006978,-0.0266648579601039,-0.0515570515863597,-0.2625347890689389,5
1.509220129517764,-0.3452210941626409,-0.0593873446294463,-0.0795454115121654,-0.0660301661406571,-0.2536104893825781,5
1.5229586756030613,-0.3165947023954064,-0.0708101562015584,-0.1291763204590614,-0.0977071693009907,-0.253204833656959,5
1.5322461039535584,-0.2879683106281721,-0.0746772688663799,-0.1433565843069139,-0.1217380042216348,-0.2645630411123482,5
1.539986420156917,-0.2891944381163883,-0.0667688363020224,-0.1539917821928032,-0.1870035537207505,-0.3014772070346485,5
1.546566402249921,-0.3155712544510075,-0.0288074961555792,-0.160786487919736,-0.2702922405956101,-0.3497495604738233,5
1.505157374975637,-0.3675074687947681,0.0849023170490358,-0.1906241320798208,-0.3101615972298904,-0.3870693688293996,5
1.4219509572343956,-0.4249646069106062,0.2188230489389686,-0.318246467988926,-0.2976000258540415,-0.5128208958282029,5
1.1874287286923808,-0.5740245236440422,0.4225144981967014,-0.4562085755869269,-0.076134044896635,-0.6677792628859744,2
1.1645961432749792,-0.9193787410456272,0.5290184666926675,-0.5333137433189392,0.0868933149798463,-0.7095612244078169,2
1.2698600052041644,-1.0066883984169162,0.612146991694203,-0.558129205052681,0.5478483695293599,-0.5967904679513353,2
1.3079798340098905,-1.0252947155468426,0.7318316811307648,-0.3114517574217972,1.201050157133278,-0.2544217875414732,2
1.3445509655125896,-1.001167474644839,0.4478220582943302,-0.1853065331368761,1.4711238231502657,-0.0333424942564914,2
1.3675785251042722,-0.9111995326781956,0.4297203429053504,0.1553151624860302,1.77205540015153,0.3439121332631192,2
1.3813170711895697,-0.9711106008080188,0.1734787773907367,0.3219332336571215,1.856709476289311,0.4956252212850805,2
1.541728506478336,-0.93123800691526,-0.6644882558999106,0.2353745389458227,1.840324814082461,0.8039193657290051,2
1.6228044747054848,-0.8124393186000133,-1.0766179416290456,-0.0996341170165578,1.4634776504364713,1.0688087928251802,2
1.5361170546331815,-0.4613598228449813,-1.3474454037956718,-0.1247449904267054,1.1827539517479793,1.1045059982167948,2
1.2841787183446387,0.0226255274899929,-1.458694719776095,0.1009574827891971,0.6527102210755141,0.9588776065095176,2
1.1572426051084057,0.2692195308133954,-1.4952494444819089,0.1464524975811224,0.3138208485148347,0.7219780390031104,2
0.984446346863088,0.4197116046539693,-1.5296964056205973,0.1420211675487665,0.226162903471134,0.6392253675951199,2
1.0866143993421076,0.4595825235091758,-1.6365516680444177,0.1092293049805097,0.056854769091989,0.5475484363777979,2
1.1719480962856643,0.50967787158306,-1.676973505415053,-0.0443901829297236,-0.2678345435016347,0.5057664748559555,2
1.2797291857657267,0.6356339953588914,-1.7172196958217611,-0.1492650259634537,-0.4893005065626239,0.4915687238444335,2
1.2332888737014651,0.749729178227538,-1.5541257308985907,-0.3607872692128752,-1.019617278400018,0.4051652505984442,2
1.1595648584850018,0.7384829761020137,-1.3054413040204802,-0.3728995738827526,-1.5816110310272238,0.1658317022151217,2
0.9983782819667776,0.494955966536704,-0.7532403632055384,-0.2981577624845336,-1.8328424719665155,0.0153355215544739,2
0.7851415266950259,0.3399664168684517,-0.4310937532587336,-0.1690583101110485,-2.3391285878474384,-0.1672070161365889,2
0.5392030054443103,0.428093492565218,-0.2572795646191596,-0.01927930467938,-2.873268481834564,-0.164773115013732,2
0.2673345041701387,0.8030958746408844,0.061175579626751,0.0398051118860189,-3.0764379844863075,-0.2288658357207336,2
0.1897411234299402,0.702292114749008,0.1082763208142539,-0.3250411737158586,-3.32657712206865,-0.4227665941595287,2
-0.0637459101616298,0.4137802966816009,0.1304207958319823,-0.3014074070896991,-3.5895509035105,-0.2467144350934551,2
-0.7081022678859658,-0.3041206977441136,0.5209329474351705,-0.2062815027116613,-3.6884050172448153,0.0851073559584274,2
-1.8124090433622264,-0.7729771089075455,1.0487060027013313,-0.3282908183210242,-3.617131747830277,1.061101440377162,2
-2.270812348967013,-0.9586365961567258,1.2627663817476138,-0.5389267636186814,-3.353338731041033,2.0034265581553488,2
-2.443800411074834,-0.3466515762322265,2.0789416736775994,-0.3566513605373169,-3.167372848549065,2.337276607896812,2
-2.2533962412204844,-0.1448380268295522,2.6875569639558186,0.1777672243242158,-2.3336670352698565,2.72710637017164,2
-1.861171608803084,-0.2086335070429454,3.445207263396976,0.4401020425869401,-0.8336513959080507,3.1794062501895075,2
-1.2030767049934512,0.1645296838003966,3.1452051284679,0.5807229665970991,-0.0529224408492813,3.381825865266533,2
-0.4675802243061235,0.3289245693242966,2.3283286884114185,0.915436186682094,1.123222955724435,3.7554296244864296,2
-0.2309291314059047,0.5019090474159194,1.9344763650351904,1.2073132325883016,1.6884936363189071,4.0182908992317685,2
0.1287871240509238,0.6470845520657851,1.4775307883788171,1.295349097006135,1.8422363572609093,3.963122484857299,2
0.3772428728525167,1.1093965915127404,1.4747189972267707,1.2844184777634482,2.111217849669973,3.4556541838187904,2
0.4921809411689835,1.226763122720849,1.4009040805010096,1.2155851273825526,2.4492881255804924,2.599326584483256,2
0.6365331621517449,1.109192236931371,1.063820279974338,1.1110056234222896,2.5921077413673306,2.148649300783178,2
0.6760067140862173,1.0558238654804726,0.891938207937962,0.6953467870080888,2.658465612119813,1.2026733279976207,2
0.9440058498366538,0.8636200065148154,0.539387396481217,0.3984475247941672,2.5647999740053167,0.6781678254378586,2
1.270246783240949,0.3976279095656593,0.0488745332350033,-0.3921020104765562,2.143441015694042,-0.3237879529274646,2
1.317073873341995,0.2336417332044978,-0.1748536274733325,-1.2467581108576504,1.6540858546327304,-1.1505029036164671,2
1.198264854345905,0.0050409832669136,-0.5597421967724281,-1.6668482821444033,1.471396900108029,-1.521267012941486,2
1.0272106824220069,-0.4681085491428272,-0.7219579268759629,-2.3737933991943505,1.2056924788375696,-2.2047875594462982,2
0.9476818263419964,-0.847608407046172,-0.672396688464268,-2.6098358135060056,0.9915995265246286,-2.7025200499620623,2
1.0156010006949134,-1.5606032164814694,-0.5147506588812629,-2.536571133092754,0.930157054434201,-2.7317268634363443,2
0.9308474708065336,-1.657319884745958,-0.3142222947034306,-2.528890158455233,0.9804033399375968,-2.3126902876872344,2
0.8489963613499272,-1.6143802970951069,-0.1938350174111603,-2.2166288356417625,1.0975536545831064,-1.4875980529471096,2
0.7290270082434831,-1.5137792167470472,0.0727754778920027,-1.8881194446887333,1.1125729275270348,-0.9419986919173302,2
0.9149800603630324,-1.005256241309778,0.3258525185975034,-1.108795983898866,1.0118072706142711,0.0153355215544739,2
1.1044172851254206,-0.8627390212552668,0.4325321340573966,-0.3655140206020287,0.8528760740524505,0.331742627648835,2
1.3253943566005304,-0.9287840769012752,0.475414468652224,-0.0635926195235272,0.8124605813990604,0.3268748254031213,2
1.2733425926911146,-1.1496143276341664,0.263461853173067,0.2409875592455649,0.8190144462818005,0.2656216548984241,2
1.2106496773024558,-1.1714936681411072,0.1421963410611611,0.1508838324536743,0.8468683675593415,0.2518295529663497,2
1.1676919527251448,-0.9570017595057708,-0.032497522127261,0.0734832288442767,0.8547876217050032,0.2368204772112463,2
1.1440842260782853,-0.7069320532615369,-0.1743266865815511,0.0371463148346445,0.8441375890334984,0.184897262118529,2
1.125896147414076,-0.6251433196623255,-0.2620249121036165,0.1296134366818956,0.7881566695206529,0.1443322478350292,2
1.1200913065505294,-0.5386510806165141,-0.4256458179185682,0.156201431396619,0.7338142162284925,0.1333796961052591,2
1.158404524374648,-0.5071620496725563,-0.4634315111010844,0.1065705030889394,0.5787061776092378,0.1597469527310654,2
1.160725192595356,-0.4441856628221928,-0.4221314389108135,0.1142514777264608,0.4266018870950857,0.2161323209900489,2
1.183559363168646,-0.3114824877860677,-0.4393549194801578,0.134340192911245,0.3673440351408701,0.2210001165895911,2
1.21181001141281,-0.2793803930980018,-0.4808306386343557,0.1092293049805097,0.2351744654478494,0.205991067419174,5
1.2944346769429855,-0.2106770528566391,-0.4943640932320182,0.0891405994761173,0.1606242859624635,0.1978780658917083,5
1.3865401598420506,-0.1207091108899963,-0.4729222060699983,0.0850046908005589,0.0287277753307889,0.1828690100751197,5
1.414985782260495,-0.0955600970811455,-0.4622019823535946,0.0850046908005589,-0.071491718718239,0.1277005957006503,5
1.4658756269036683,-0.0751129136813427,-0.4391792725162307,0.0799825132144118,-0.1069918127095739,0.082267805756123,5
1.513864636270957,-0.1055784966809014,-0.3959442042643367,0.0743694929146696,-0.1536880977620448,-0.0171164845553886,5
1.5148315813629183,-0.1558781993361551,-0.3586868917028144,0.1030254419671722,-0.16515736130684,-0.0844543978979706,5
1.5171538347395148,-0.2251946033216256,-0.319670230043596,0.0864818024247429,-0.1531419438465179,-0.1071708061625773,5
1.5382459189913855,-0.2235597666706707,-0.3098282411468279,-0.0048036243149258,-0.1282918691043749,-0.164773115013732,5
1.5552736635452409,-0.2243771849961482,-0.2999862522500597,-0.0169159289848032,-0.1154572162966581,-0.2126398260196308,5
1.5769459148522889,-0.2812212593678783,-0.2736233706396557,0.0019910862522027,-0.1138187500759731,-0.2284601799951145,5
1.572881575154273,-0.3482880879207337,-0.2507763077662189,0.0282836499297367,-0.1285649460621383,-0.2495539852957595,5
1.580428502339239,-0.4636093982775967,-0.1838173815504651,-0.0074624213663002,-0.1657035152223669,-0.2272432327567718,5
1.6102278478864298,-0.460133695356765,-0.1147478123091609,-0.0399588528973676,-0.1908266445517517,-0.2004703270515181,5
1.623966393971727,-0.4261907343988225,-0.0887376643558236,-0.0824996347605333,-0.2459883287172025,-0.1388115141135449,5
1.5997785002696905,-0.3206834690603461,-0.0404059546916184,-0.0467535634644963,-0.2681076204593982,-0.0917561012665411,5
1.5047690117829635,-0.281629968530617,-0.0149227476300625,-0.0142571319334289,-0.2528152705577061,-0.0844543978979706,5
1.4616194833431488,-0.2875596014654333,-0.0075412559574864,0.0265111169487551,-0.1779920096404523,-0.1213685571740993,5
1.4349159472461237,-0.317412120720884,-0.015800982449698,0.0235568937003872,-0.1277457107147436,-0.1513866621611051,5
1.4633599845086798,-0.3699613988087527,-0.0486656811838301,-0.0101212232578705,-0.0357185477691407,-0.1814047737942824,5
1.4807760922552082,-0.3799797984085086,-0.0713385368225523,-0.0597521322047665,0.0172585162600981,-0.1521979669661717,5
1.5355368875780049,-0.3223199807488533,-0.1145721653452338,-0.0786591474417725,0.0232662227532069,-0.1306985125860792,5
1.5792665830729966,-0.2159936220473472,-0.128455474141538,-0.0706827514474535,-0.0048607754820974,-0.0990578046351117,5
1.5724947971174883,-0.1777575398430956,-0.1289838547625318,-0.0275511268706926,-0.0512839746285962,-0.1209629014484802,5
1.536310443651574,-0.1558781993361551,-0.1332008216259949,-0.0077578427230978,-0.0673955554035787,-0.1534149142045144,5
1.5303122137696352,-0.1712148431641713,-0.1409336072264253,0.0238523198973807,-0.0805032851690588,-0.2207528275470964,5
1.5339881902749777,-0.183687172777912,-0.1411092541903524,0.051326578682497,-0.0884225393147205,-0.2540161384620257,5
1.5502423787552635,-0.1969785957546822,-0.1397040784789355,0.0590075533200184,-0.0957956261225422,-0.260100887946082,5
1.5339881902749777,-0.1951377294848057,-0.1558722375355046,0.0545762232876625,-0.1190072256957916,-0.2872794493769549,5
1.52547431799805,-0.1973873049174209,-0.1639577567930017,0.0545762232876625,-0.1542342516775717,-0.3489382556687566,5
1.526054485053227,-0.2613871397121836,-0.1551696496797962,0.0737786502010744,-0.1837266257534848,-0.3793620163813814,5
1.481356259310385,-0.3507403428971661,-0.0755555036860154,0.135817304535429,-0.2801230379197202,-0.4454829758394493,5
1.4554262792869292,-0.3803901826087997,-0.0184371266378172,-0.0130754416660425,-0.3980925655421027,-0.6491193587081863,5
1.4755514184468383,-0.4178071714500215,0.0838484352654732,-0.2488222700542393,-0.4570773405385547,-0.7870403447980732,5
1.3658364387828528,-0.5887464286903983,0.2980844612756826,-0.5805812814114543,-0.5168813464082972,-0.915631435291524,5
1.2634749972854409,-0.7670474759727292,0.3824439547539203,-0.4322793827637738,-0.4043733534670793,-0.7756821439888556,5
1.0597190593825785,-1.2408083970890256,0.551338588674323,-0.2999302954655151,-0.26373837571287,-0.6227521020823801,2
0.9140131152710708,-1.5685780702675316,0.7975610785990289,-0.1463108075552817,0.2318975374805837,-0.1951968757263568,2
0.8437716875415576,-1.5642849490212225,0.9086347476155248,-0.2656613309534661,1.0003380115435805,0.1901707134436902,2
0.9782547279627566,-1.2536911109030573,0.5553799085738589,-0.3421756753326667,1.3815544870476633,0.3309313294899399,2
1.2298062862145152,-0.8866635826134535,0.139560196873042,-0.3672865535830102,1.7573092086394693,0.506577779661022,2
1.2814696869312576,-0.8443370587067096,-0.0237094150140555,-0.1805797720673307,1.7682323137946332,0.6229993578940172,2
1.2613461329272369,-0.7703188243121913,-0.4175617383902837,-0.1368572999367787,1.7223552685636612,0.704940737789284,2
1.1390545264441962,-0.3562612666692437,-0.8363703279362865,-0.2210525899123254,1.596739545856963,0.8765307370429198,2
1.0951298567749237,-0.1546520718479387,-1.0274079971452048,-0.2251884985878837,1.4287969215415568,0.9454911536568908,2
0.9219468204928214,0.0193541791505307,-1.542701479597266,-0.1554688889767913,1.3160158516425755,0.944274206418548,2
0.9300739147329644,0.0980759189916493,-2.043936006289096,0.0850046908005589,0.965657148425536,0.966179309878088,2
0.9976047258932084,0.2172833164696347,-2.178910619962591,0.2610762599097614,0.4077595277942601,1.0343285280257368,2
1.0252752070821949,0.4362727009326497,-2.261336557108418,0.2170583664224118,0.0677778787212572,1.0290550767005755,2
1.0066987652253128,0.4604016168722056,-2.203162858547445,0.057825867892828,-0.6796356651198496,0.890728388361869,2
1.0604926154561478,0.6470845520657851,-1.941123503494024,-0.0432084975025331,-1.4251376702566123,0.6688378235026781,2
1.0881630966451346,0.7055634630884703,-1.4079025128876976,-0.0919531423790363,-1.7782269417165917,0.5516049404646165,2
1.0719089081648487,0.6816405767678358,-1.1249482115640383,-0.0290282336546807,-2.433340379877462,0.3260635272442262,2
0.7868836130164454,0.8959264557842507,-0.7386544665535258,0.2932772894448148,-3.1209496449284626,0.1074180885589005,2
0.1214351710402386,1.212449926837232,-0.2920778196857023,0.55236244374159,-3.4483697539443465,-0.0779639993344667,2
0.0092045489812643,1.1846426284330274,0.2144289953823658,0.5644747532516633,-3.8350477193885504,-0.6199125518800757,2
0.0155895568999879,1.0537803196667788,0.4508094964103036,0.3517708681368146,-3.925709497545336,-0.8438313621365042,2
-0.6568240600501192,-0.4468422723799946,0.628315150750772,0.6743718174333037,-4.133521594821736,-0.64303460922413,2
-1.1517984971576043,-1.207684529494113,0.9893027753928684,0.6247408988060157,-3.956567274306484,0.3629776333509827,2
-1.9530837026837569,-1.8728335662881412,1.837814385435992,-0.1492650259634537,-3.2547576987385853,1.6196817513958943,2
-2.2127607700197696,-1.520936652207632,2.28017262571114,-0.3708316195449734,-2.742737364939915,2.2942776924904558,2
-2.0184872346416847,-0.9502547082454772,2.3383463242721136,-0.3906249036925682,-1.6493342865685234,3.166425446416328,2
-1.125288350078972,0.1297693045169765,2.3499447828081528,0.2947544010689988,-0.7541857998641923,3.2353861687541894,2
-0.614641476702266,0.0739486780896454,2.8826373927934847,0.7059819800537822,-0.3118000634505755,3.1850853505941163,2
-0.6070945495172999,0.0485936346618733,2.898982638543194,1.0341958770470752,0.7982605438025265,3.160340696932272,2
-0.330194763453151,0.5632505976153278,2.143088808741307,1.2578304878889206,1.7283629750567702,2.94210093391108,2
0.0759618040679388,0.6771414259026052,1.4666349176984863,1.4551724624502935,2.043494589654569,2.752662328638551,2
0.2481778952580794,0.695953772651453,1.296862048958448,1.7972711196513111,2.478507436120955,2.329974904528241,2
0.3938838393695872,0.6975886093024081,0.889653357677697,1.7107124394606,2.72646194909298,1.9080989846081444,2
0.4281327174956899,0.658535108772679,0.4991412060745088,1.476147432025079,2.760869730779157,1.6496998630290718,2
0.5848681762791138,0.6023040981450569,0.3632869178521654,0.7996307195654812,2.583642333306142,0.9848392140558764,2
0.9382010089731072,0.511723092434306,0.1167131339996052,0.403765123737112,2.40341108034952,0.6161033102510657,2
1.013278747318317,0.5434164779596331,-0.1984032782024777,-0.4674346161864114,2.0142752835882107,-0.1635561677753893,2
0.9639360148222824,0.451198960560375,-0.3643104740069069,-1.2352366489013682,1.7100667741455755,-1.065722026688268,2
0.8565432885348933,0.1471494941586865,-0.6709900730236386,-1.5776309501081949,1.5849972053544048,-1.5265404642666476,2
0.7203181617922747,-0.4069713535247882,-0.8019233667975979,-2.230809094649419,1.3621659738313108,-2.276993281680765,2
0.6947765449614919,-0.8930019247110081,-0.8057890397332068,-2.6881226763456,1.150257713240251,-2.6270691284458425,2
0.7094820361387507,-1.5201192338821543,-0.7701125498470286,-2.6494223769609992,1.053041998615056,-2.5564860091753374,2
0.6601408887986044,-1.4092937243154178,-0.5797774684938186,-2.191517957391419,0.89574926827392,-2.112299330070081,2
0.6820049439681563,-1.6239899875321235,-0.3479652282571982,-1.5324313711936546,0.7258949665569352,-1.294914241746657,2
0.5237223730375936,-2.002468072528621,0.1081006738503268,-1.192400440841209,0.6606294752211758,-0.7375510308282126,2
0.5477168777212379,-1.6413701771738336,0.4502825555185222,-0.6541414267432665,0.5456637449190436,-0.0195503856782454,2
0.6926476806032879,-1.5937287591139344,0.4857833984407734,-0.431393118693381,0.5691484259241607,-0.1169064040078332,2
0.8660241059037824,-1.616221163364983,0.3124961506929806,-0.4349381798151482,0.6114754975488339,-0.2102059315429455,2
0.7557289591846198,-1.55631009523516,0.1929871082203459,-0.3601964264992799,0.6680025709772063,-0.1870838741988912,2
0.7040639733119887,-1.5628527919140844,0.1341122615328766,-0.0576841778669873,0.6865718533202683,0.0015434196223995,2
0.6820049439681563,-1.46532038036167,0.0286621748204731,0.0557579087148529,0.6693679602401278,0.0826734548355706,2
0.6899386491899068,-1.3598114399856416,-0.0049051117693672,0.0894360208329149,0.6158447378212576,0.1889537595591761,2
0.7510860375873155,-1.1561570243130912,-0.0440974203925127,0.0271019596623504,0.5535829990647053,0.2790081143972225,2
0.8153276502790013,-0.8936149884551163,-0.0848705516910022,-0.0021448224233555,0.5112559632328668,0.3236296261213694,2
0.8091360313786702,-0.762752679688868,-0.0955907754074059,0.0253294266813688,0.4290595886631654,0.368251084676144,5
0.815134261260609,-0.6826004577781636,-0.1256436829894917,0.0327149799620926,0.3935594901977262,0.3767697419292286,5
0.90259682256237,-0.5650278969511333,-0.1936579307180207,-0.0056898883853187,0.3782671447701384,0.3856940416155894,5
0.955422142545355,-0.4934619175330473,-0.2105301173595108,-0.0145525532902265,0.3143670069044659,0.3885335918178938,5
1.054107607537424,-0.3926581576411709,-0.2363660580781334,0.0114445938707057,0.2646668529460755,0.3723075887629625,5
1.0995793893538357,-0.405947905580389,-0.2265240691813653,0.072596959933688,0.1562550412159353,0.3086205703047807,5
1.1332481004247612,-0.4204654560453756,-0.2129906145837028,0.0915039751706941,0.0729663543410758,0.2514239038869021,5
1.224388223387753,-0.4043130689294341,-0.1665939009811208,0.0811642034817982,0.0415624281385056,0.2372261262906939,5
1.281082908894473,-0.3760953863249384,-0.1142208714173796,0.0628480406387792,0.000327700137721,0.2266792236403714,5
1.306237747688471,-0.3574890691950121,-0.1013914444046381,0.0430547564911844,-0.0135992605010494,0.1995006622094985,5
1.338746124649043,-0.3411306524601489,-0.0980512726315979,0.0341920915862766,-0.0157838806372614,0.1642091058973315,5
1.3967961184403976,-0.3462428670694877,-0.1131655499046044,0.0081949492655402,-0.023703134782923,0.061174000455478,5
1.4169212576003067,-0.3822293738411239,-0.1071906736726577,0.0226706296299944,-0.0499185853656747,-0.0118430332302273,5
1.4515569137631943,-0.4206698106267449,-0.0973486847758895,0.0253294266813688,-0.0630263106570505,-0.0191447365987979,5
1.4589104519297678,-0.3936799305480178,-0.1027966201160549,0.001104817341614,-0.0955225491647788,-0.0171164845553886,5
1.440527399091278,-0.3740501654736924,-0.0978756256676708,0.0188301471514296,-0.1353918879026418,-0.0402385418994429,5
1.4060851319467829,-0.374869258836722,-0.0627260766732739,0.0395096905292213,-0.1438572959638304,-0.0588984394310595,5
1.4234996545374228,-0.3758910317435689,-0.0337284906039633,0.0401005332428165,-0.1465880789637779,-0.0893222001436843,5
1.4273690200611575,-0.3834571763668923,-0.0210732708259363,0.0318287158916998,-0.159695808729258,-0.09743520167115,5
1.3863467708236583,-0.4245558977478674,0.033935902925924,0.0333058275158838,-0.1599688856870215,-0.0885109019847892,5
1.3656430497644605,-0.407993126431635,0.0717215961084401,0.0058315735709634,-0.1236495474000832,-0.0629549368717065,5
1.3751238671333497,-0.3826380830038627,0.0697880397760294,-0.0494123605158706,-0.0813225205164535,-0.0767470454499525,5
1.391571444632028,-0.3562612666692437,0.0518619713509767,-0.0573887565101897,-0.0695801755397906,-0.1006804075990734,5
1.4430430414862667,-0.3609647721158436,0.0566073188354336,-0.0384817412731837,-0.0613878444363655,-0.1558488153273712,5
1.453492389103006,-0.3842745946923699,0.0645157513997911,-0.0186884619657848,-0.0657570891828936,-0.1724804674617501,5
1.4333672499430967,-0.4131053410409737,0.0587150824025589,-0.0172113503416009,-0.0657570891828936,-0.1720748183823025,5
1.4234996545374228,-0.4186262648130512,0.0506310028742744,-0.0316870355462509,-0.0657570891828936,-0.1818104228737299,5
1.4240798215925998,-0.4317116581709,0.05484940946695,-0.0375954772027909,-0.0723109540656337,-0.185866920314377,5
1.41885514778423,-0.4562492832731947,0.0778721193043139,-0.0467535634644963,-0.0785917419906103,-0.1834330191915202,5
1.4080190221307065,-0.4384603844687458,0.1024770915462343,-0.1008158024437482,-0.1020764140475189,-0.2033098772538225,5
1.4085991891858831,-0.4319160127522693,0.1119677865151482,-0.1864882234042624,-0.1474073143111725,-0.2779494939649751,2
