timestamp,ax,ay,az,gx,gy,gz
79,0.183350,-0.297607,0.933228,-7.629394,-3.051758,-4.882812
90,0.181641,-0.299927,0.950317,-8.605957,-4.394531,-5.432128
102,0.180176,-0.298706,0.967651,-8.728027,-5.981445,-5.798339
113,0.177612,-0.299194,0.976929,-3.356933,-7.446289,-5.981445
124,0.173950,-0.308228,0.976685,-1.037598,-6.286621,-6.347656
135,0.172607,-0.323853,0.970825,-0.427246,-4.516602,-6.835937
147,0.168945,-0.340698,0.958374,-1.953125,-2.685547,-7.446289
158,0.168335,-0.342163,0.953491,-4.760742,-1.281738,-7.690429
169,0.164551,-0.336182,0.950073,-7.629394,0.000000,-7.263183
180,0.161743,-0.328491,0.949097,-8.728027,0.976562,-6.774902
192,0.161987,-0.327637,0.953125,-6.469726,1.159668,-6.347656
203,0.161011,-0.341064,0.961548,-0.183105,0.305176,-5.981445
214,0.157959,-0.357178,0.970703,-0.244141,1.037598,-5.737304
225,0.157593,-0.362061,0.977417,-1.708984,2.563476,-5.310058
237,0.161743,-0.356079,0.979248,-2.319336,4.089355,-4.882812
248,0.165527,-0.350708,0.974609,-1.342773,5.249023,-4.272461
259,0.165894,-0.353027,0.967163,0.366211,6.347656,-3.479004
270,0.170898,-0.357788,0.958252,2.502441,7.263183,-2.685547
281,0.179565,-0.369507,0.953735,5.187988,7.446289,-1.708984
293,0.182617,-0.378296,0.948975,6.408691,6.958007,-0.488281
304,0.182861,-0.380249,0.936890,1.525879,5.493164,1.586914
315,0.185669,-0.380005,0.924194,0.061035,4.089355,2.502441
326,0.187378,-0.381592,0.921143,-2.380371,2.868652,3.356933
337,0.190796,-0.376831,0.927490,-5.065917,2.136230,4.211426
349,0.190674,-0.346191,0.943481,-6.713867,1.403808,5.310058
360,0.192993,-0.336304,0.942139,-7.995605,0.183105,6.164550
371,0.198853,-0.328491,0.938843,-9.399414,-1.159668,6.347656
382,0.203247,-0.320190,0.937378,-10.681151,-2.258301,6.286621
394,0.202148,-0.316040,0.937744,-11.352538,-2.807617,6.042480
405,0.198975,-0.315430,0.936768,-11.901855,-2.990722,4.821777
416,0.191162,-0.316284,0.931641,-12.268065,-3.173828,4.272461
427,0.181519,-0.319946,0.927490,-12.878417,-2.929687,4.150391
439,0.171875,-0.319214,0.945068,-13.427733,-1.953125,4.760742
450,0.169800,-0.309937,0.957031,-12.817382,-0.122070,5.920410
461,0.170532,-0.300415,0.964111,-10.681151,1.953125,6.774902
472,0.173706,-0.296631,0.967285,-7.812500,3.723144,6.713867
484,0.178467,-0.298462,0.969971,-5.676269,4.821777,5.737304
495,0.183472,-0.300903,0.972290,-7.385253,6.042480,2.563476
506,0.187378,-0.300659,0.969116,-9.399414,5.981445,1.159668
517,0.190674,-0.300171,0.959106,-10.192870,4.943848,0.183105
528,0.190430,-0.303955,0.950073,-9.948730,2.929687,-0.488281
540,0.182495,-0.297852,0.945435,-9.155273,0.305176,-1.220703
551,0.180176,-0.282104,0.946167,-7.934570,-2.380371,-1.892090
562,0.179199,-0.267700,0.950439,-5.737304,-4.150391,-2.441406
573,0.183350,-0.258789,0.954712,-2.441406,-3.723144,-2.563476
585,0.190674,-0.255493,0.956055,1.037598,-1.098633,-2.319336
596,0.199829,-0.252563,0.952026,3.417969,5.676269,-1.892090
607,0.211182,-0.250122,0.941895,1.281738,7.568359,-2.319336
618,0.221924,-0.251709,0.929932,-2.624511,8.117676,-3.173828
630,0.227661,-0.254517,0.920898,-7.080078,7.812500,-4.028320
641,0.225220,-0.254028,0.906982,-9.826660,6.896972,-4.333496
652,0.222534,-0.249512,0.904053,-10.314940,5.310058,-4.211426
663,0.221924,-0.243774,0.904785,-9.765625,3.295898,-4.150391
674,0.223389,-0.236938,0.902832,-8.544922,1.281738,-4.394531
686,0.227783,-0.233765,0.899048,-6.713867,-0.183105,-5.187988
697,0.231812,-0.243408,0.895386,-5.004883,-1.342773,-8.117676
708,0.231567,-0.255737,0.891479,-7.568359,-1.342773,-9.887695
719,0.229248,-0.256592,0.888794,-11.047362,-2.075195,-11.230468
731,0.225342,-0.246582,0.901489,-12.939452,-4.150391,-12.023925
742,0.221680,-0.250977,0.913818,-12.512206,-7.385253,-12.512206
753,0.217041,-0.260986,0.930420,-11.169433,-11.352538,-13.061522
764,0.210571,-0.267944,0.949463,-9.765625,-15.258788,-13.610839
776,0.205444,-0.270264,0.966675,-8.178711,-18.310547,-13.854980
787,0.204590,-0.272949,0.984741,-6.835937,-22.277830,-12.512206
798,0.198364,-0.271362,1.002686,-5.371093,-22.827147,-10.803222
809,0.186035,-0.268921,1.014893,-2.868652,-21.667479,-8.789062
821,0.174683,-0.269409,1.023071,-1.159668,-18.554688,-6.835937
832,0.168823,-0.266968,1.028931,-0.549316,-13.427733,-5.432128
843,0.168457,-0.269043,1.018433,-0.183105,-6.591796,-4.272461
854,0.168945,-0.273560,0.998901,0.427246,0.549316,-3.173828
866,0.171387,-0.287598,0.976929,0.732422,6.225585,-2.136230
877,0.174683,-0.315308,0.959595,-0.488281,9.521484,-1.525879
888,0.178345,-0.339111,0.949829,-7.934570,9.948730,1.708984
899,0.183594,-0.343262,0.945435,-10.192870,8.117676,4.943848
910,0.188721,-0.329834,0.943481,-9.521484,5.615234,8.422852
922,0.194946,-0.311523,0.943115,-7.019042,2.868652,11.352538
933,0.215820,-0.279785,0.942871,-4.882812,0.183105,13.244628
944,0.228760,-0.266968,0.947998,-3.906250,-2.380371,13.610839
955,0.244263,-0.255737,0.952759,-3.295898,-4.272461,13.061522
967,0.260132,-0.243164,0.957275,-2.624511,-5.065917,12.207030
978,0.270386,-0.230957,0.964722,-1.831055,-5.065917,11.291503
989,0.276245,-0.224854,0.972290,0.122070,-3.723144,8.972168
1000,0.279053,-0.228149,0.976074,-0.122070,-3.540039,7.202148
1012,0.279419,-0.244507,0.968994,-2.807617,-4.760742,5.249023
1023,0.273926,-0.250000,0.968262,-6.652832,-7.019042,3.479004
1034,0.262085,-0.233276,0.982910,-8.422852,-9.216309,2.380371
1045,0.241821,-0.223145,0.990723,-6.835937,-10.620116,2.136230
1057,0.220703,-0.219971,0.990845,-3.601074,-11.230468,2.380371
1068,0.210327,-0.219849,0.983765,-1.281738,-10.803222,2.014160
1079,0.214233,-0.211304,0.973999,0.732422,-6.835937,-0.610352
1090,0.228638,-0.195435,0.962524,2.380371,-4.150391,-1.892090
1102,0.245728,-0.185669,0.941162,3.540039,-1.342773,-2.746582
1113,0.259033,-0.178955,0.917480,4.394531,1.464844,-3.234863
1124,0.263184,-0.154541,0.911743,7.202148,4.577637,-3.845215
1135,0.254517,-0.165161,0.908813,11.657714,7.995605,-4.943848
1147,0.242920,-0.186768,0.903564,14.709472,10.620116,-6.408691
1158,0.226807,-0.208252,0.905640,14.709472,12.084960,-7.995605
1169,0.211060,-0.222534,0.915161,12.268065,13.000487,-10.192870
1180,0.205688,-0.229614,0.926636,2.929687,13.671874,-15.930175
1192,0.207031,-0.233521,0.936768,-1.892090,12.939452,-17.517090
1203,0.206909,-0.232666,0.945557,-4.943848,11.596679,-17.517090
1214,0.204590,-0.219116,0.957764,-5.065917,10.131835,-16.784668
1225,0.204834,-0.215698,0.959961,-1.831055,8.972168,-15.808105
1237,0.204346,-0.213867,0.952881,4.760742,8.666992,-14.099120
1248,0.202637,-0.209473,0.941162,13.366698,9.216309,-11.413573
1259,0.198608,-0.206055,0.932861,22.460936,10.375976,-8.422852
1270,0.190430,-0.219360,0.932373,34.118652,13.000487,-5.554199
1282,0.175537,-0.264160,0.938843,31.616209,14.221190,-6.042480
1293,0.159180,-0.314941,0.941895,22.827147,16.235352,-7.141113
1304,0.151611,-0.334961,0.939209,10.437011,18.737793,-8.117676
1315,0.162476,-0.309814,0.917480,-1.708984,20.446775,-8.300781
1327,0.172119,-0.294067,0.906738,-10.864257,19.958496,-7.446289
1338,0.182739,-0.283203,0.901123,-15.624999,17.395020,-5.737304
1349,0.189209,-0.277710,0.892212,-15.441894,13.977050,-3.173828
1360,0.189087,-0.274780,0.874268,-11.169433,10.620116,-0.244141
1372,0.183350,-0.272339,0.855469,-0.549316,3.845215,2.563476
1383,0.175537,-0.275269,0.849609,2.197266,0.427246,1.647949
1394,0.168823,-0.288940,0.861816,2.258301,-2.990722,0.183105
1405,0.149048,-0.338623,0.901489,-0.183105,-6.713867,-0.854492
1416,0.133545,-0.355225,0.911865,-5.126953,-10.498046,-1.098633
1428,0.120361,-0.353760,0.918823,-11.779784,-14.221190,-1.098633
1439,0.108398,-0.336670,0.927612,-17.761230,-17.761230,-1.037598
1450,0.096680,-0.314087,0.941406,-20.996092,-21.240232,-1.098633
1462,0.087891,-0.292603,0.957275,-19.226074,-24.475096,-0.854492
1473,0.081543,-0.275635,0.968506,-15.441894,-23.681639,-0.244141
1484,0.075562,-0.267944,0.978516,-10.498046,-22.155760,0.610352
1495,0.070557,-0.270142,0.990234,-5.493164,-20.080564,1.525879
1507,0.071289,-0.290039,1.000732,-2.075195,-17.883301,2.136230
1518,0.074585,-0.297974,0.999023,-1.159668,-16.113281,2.319336
1529,0.079102,-0.298584,1.001099,-2.380371,-14.587401,2.380371
1540,0.083008,-0.295654,1.007812,-3.906250,-12.573241,2.807617
1552,0.084961,-0.289917,1.012817,-4.333496,-9.704590,3.723144
1563,0.086426,-0.286255,1.011108,-2.258301,-2.868652,5.859375
1574,0.089111,-0.285645,1.003662,-2.563476,0.488281,6.042480
1585,0.096436,-0.280396,0.993286,-4.272461,3.295898,5.493164
1597,0.123535,-0.257812,0.981689,-6.042480,5.554199,4.638672
1608,0.133545,-0.249268,0.974731,-6.286621,7.507324,4.272461
1619,0.138916,-0.247192,0.962524,-5.126953,8.544922,4.577637
1630,0.142822,-0.247925,0.953247,-3.601074,8.361816,4.943848
1642,0.147827,-0.242676,0.948730,-2.014160,7.568359,5.187988
1653,0.157227,-0.235107,0.944092,2.990722,6.347656,5.249023
1664,0.166626,-0.235352,0.939941,4.821777,5.310058,5.187988
1675,0.169922,-0.238892,0.939697,5.310058,3.967285,4.943848
1686,0.169922,-0.241333,0.940674,4.577637,2.441406,4.455566
1698,0.169434,-0.256836,0.945068,3.112793,1.037598,4.333496
1709,0.170898,-0.260742,0.949951,1.892090,0.488281,5.310058
1720,0.175903,-0.257568,0.945801,1.647949,1.342773,7.141113
1731,0.183472,-0.256714,0.938477,1.953125,2.807617,8.728027
1743,0.191040,-0.257202,0.939087,1.464844,3.356933,9.094238
1754,0.199097,-0.251709,0.942993,-1.525879,0.732422,7.507324
1765,0.207520,-0.239136,0.942261,-2.075195,-1.281738,6.713867
1776,0.212891,-0.226074,0.937256,-1.770019,-3.173828,6.042480
1787,0.213989,-0.222778,0.930664,-1.098633,-5.004883,5.554199
1799,0.204224,-0.245728,0.932373,-0.793457,-6.591796,5.371093
1810,0.199463,-0.248047,0.937622,-1.220703,-7.690429,5.432128
1821,0.192749,-0.244385,0.945312,-2.441406,-8.422852,5.615234
1832,0.183960,-0.239868,0.957153,-3.479004,-8.972168,5.737304
1844,0.177368,-0.231079,0.966431,-3.173828,-8.789062,5.981445
1855,0.175415,-0.222778,0.969849,2.075195,-7.019042,6.530761
1866,0.176514,-0.222290,0.971069,5.249023,-6.469726,6.530761
1877,0.178467,-0.228882,0.970947,7.324218,-6.225585,6.164550
1889,0.181274,-0.248779,0.962769,7.202148,-6.164550,5.554199
1900,0.180664,-0.262085,0.963257,4.577637,-6.042480,4.821777
1911,0.177002,-0.269287,0.970459,0.549316,-5.310058,4.577637
1922,0.173218,-0.266602,0.976318,-3.540039,-3.662109,4.882812
1934,0.172485,-0.256470,0.980225,-6.530761,-1.892090,5.432128
1945,0.174194,-0.241821,0.988403,-7.995605,-0.732422,5.493164
1956,0.177368,-0.225342,1.000244,-6.713867,-0.915527,4.760742
1967,0.179077,-0.214722,1.008545,-5.065917,-1.159668,3.906250
1978,0.176880,-0.213379,1.011719,-3.906250,-0.976562,3.417969
1990,0.165649,-0.216431,1.026611,-3.540039,0.427246,3.662109
2001,0.162109,-0.211548,1.033447,-3.601074,3.601074,4.638672
2012,0.161011,-0.203125,1.033081,-3.845215,8.300781,5.859375
2023,0.163086,-0.193604,1.026001,-4.028320,13.488769,6.713867
2034,0.167480,-0.187622,1.016357,-4.150391,17.822266,6.713867
2046,0.172852,-0.183594,1.008179,-3.967285,21.484373,5.432128
2057,0.179321,-0.179688,1.002686,-3.601074,20.935057,4.516602
2068,0.186157,-0.177612,1.001221,-2.624511,19.775391,3.662109
2079,0.191284,-0.177002,1.002930,-0.671387,18.493652,2.929687
2091,0.194580,-0.184814,1.002319,1.770019,17.333984,1.953125
2102,0.196411,-0.193604,0.994873,4.089355,16.479492,0.732422
2113,0.201050,-0.200806,0.982178,5.554199,15.686034,-0.732422
2124,0.206909,-0.205566,0.966553,6.042480,14.343261,-2.441406
2136,0.210938,-0.210693,0.954224,5.859375,11.962890,-4.394531
2147,0.212402,-0.217651,0.948364,5.004883,6.408691,-7.446289
2158,0.211182,-0.223267,0.943848,4.882812,5.310058,-7.324218
2169,0.207764,-0.228638,0.937866,5.126953,6.042480,-6.103515
2181,0.203979,-0.242798,0.920654,4.943848,8.605957,-4.272461
2192,0.206787,-0.248169,0.910278,3.417969,12.145995,-2.746582
2203,0.213745,-0.246338,0.904907,0.183105,15.624999,-2.014160
2214,0.222900,-0.236084,0.905640,-3.784179,17.822266,-2.197266
2226,0.231567,-0.224365,0.912476,-6.835937,18.188477,-3.295898
2237,0.237549,-0.219238,0.927979,-8.300781,15.014647,-5.249023
2248,0.239014,-0.224121,0.941528,-8.666992,14.160155,-4.272461
2259,0.236938,-0.234375,0.941284,-9.765625,13.244628,-2.868652
2271,0.234985,-0.240723,0.934570,-10.742187,10.925292,-2.258301
2282,0.242676,-0.235229,0.925903,-10.986327,6.835937,-2.624511
2293,0.248047,-0.233276,0.931396,-10.742187,1.770019,-3.723144
2305,0.249878,-0.237183,0.948486,-11.291503,-2.502441,-4.943848
2316,0.243530,-0.239990,0.963989,-13.793944,-3.845215,-5.737304
2327,0.233276,-0.232544,0.961182,-17.211914,-2.319336,-5.676269
2338,0.224854,-0.214111,0.945801,-19.042969,-1.281738,-4.394531
2350,0.217285,-0.191528,0.930664,-15.014647,-3.845215,-3.723144
2361,0.211182,-0.177002,0.922363,-7.568359,-6.652832,-2.990722
2372,0.213745,-0.200073,0.935425,0.671387,-8.422852,-2.136230
2383,0.225464,-0.216553,0.953247,5.859375,-8.300781,-1.281738
2395,0.237305,-0.222656,0.971802,5.798339,-6.530761,-0.732422
2406,0.245117,-0.220093,0.980347,1.586914,-3.967285,-0.488281
2417,0.250977,-0.212158,0.986084,-4.272461,-1.770019,-0.915527
2428,0.243408,-0.201416,0.998535,-15.197753,0.427246,-2.380371
2440,0.222900,-0.190918,0.999146,-15.930175,0.793457,-2.624511
2451,0.209595,-0.180786,0.983398,-12.329101,-0.793457,-3.112793
2462,0.207031,-0.175415,0.968018,-6.774902,-4.211426,-3.662109
2473,0.217285,-0.183716,0.957275,-1.892090,-7.629394,-3.784179
2485,0.230347,-0.190796,0.958862,0.366211,-9.765625,-3.967285
2496,0.241089,-0.192993,0.971191,-0.976562,-10.559081,-4.760742
2507,0.234131,-0.188965,0.993408,-5.126953,-9.582520,-6.103515
2518,0.207886,-0.187622,0.998779,-9.826660,-6.347656,-6.958007
2529,0.183228,-0.193604,0.981079,-12.695312,-1.403808,-4.455566
2541,0.169800,-0.197632,0.961182,-10.864257,-2.502441,-3.051758
2552,0.162842,-0.195068,0.952026,-7.690429,-4.150391,-2.136230
2563,0.185547,-0.182251,0.953247,-4.455566,-5.126953,-1.647949
2574,0.208618,-0.172363,0.966553,-2.929687,-5.126953,-1.770019
2585,0.216553,-0.162720,0.983276,-4.211426,-4.150391,-2.563476
2597,0.204712,-0.160889,0.990112,-7.812500,-2.624511,-3.417969
2608,0.186890,-0.161621,0.981812,-11.352538,-2.075195,-4.028320
2619,0.179688,-0.156250,0.970459,-12.634276,-3.662109,-4.882812
2630,0.181519,-0.147705,0.966919,-8.361816,-10.925292,-8.056641
2642,0.181274,-0.143799,0.970825,-6.835937,-13.122558,-9.704590
2653,0.175171,-0.150391,0.979004,-6.652832,-12.939452,-10.620116
2664,0.161499,-0.177734,1.000000,-6.469726,-9.887695,-9.582520
2675,0.155029,-0.173096,0.999634,-5.249023,-4.028320,-6.286621
2687,0.155884,-0.163452,0.990967,-2.319336,2.807617,-2.441406
2698,0.165161,-0.160034,0.977173,2.075195,8.361816,0.427246
2709,0.180664,-0.163696,0.965820,6.652832,11.352538,2.075195
2720,0.197876,-0.166870,0.961792,10.559081,11.718749,1.892090
2732,0.210449,-0.166626,0.962280,9.948730,11.169433,0.793457
2743,0.216797,-0.166626,0.964966,9.277344,10.559081,-0.244141
2754,0.218262,-0.172241,0.968384,8.544922,10.009766,-0.732422
2765,0.219482,-0.196411,0.982178,7.568359,10.253905,0.183105
2777,0.220703,-0.195679,0.978638,7.446289,11.352538,2.380371
2788,0.225098,-0.186279,0.970459,8.117676,12.145995,4.272461
2799,0.231812,-0.179077,0.967896,9.155273,11.352538,4.760742
2810,0.235229,-0.181030,0.972412,10.131835,9.094238,3.967285
2822,0.234497,-0.185913,0.978149,9.643555,4.638672,0.488281
2833,0.233398,-0.187500,0.980347,8.056641,3.173828,-0.915527
2844,0.232178,-0.188599,0.977173,6.408691,2.258301,-1.464844
2855,0.227295,-0.196899,0.966309,5.310058,2.136230,-1.220703
2866,0.224976,-0.201904,0.960938,4.699707,2.807617,-0.366211
2878,0.226074,-0.203125,0.956421,4.333496,3.662109,0.305176
2889,0.229736,-0.199951,0.953979,3.723144,3.662109,0.305176
2900,0.233643,-0.198242,0.956421,2.380371,2.380371,-0.061035
2911,0.234375,-0.197754,0.963257,0.610352,0.732422,-0.183105
2922,0.229736,-0.194092,0.963501,-1.464844,1.831055,1.586914
2934,0.223755,-0.191040,0.952271,-1.525879,2.624511,2.441406
2945,0.222046,-0.191650,0.934814,-1.708984,1.647949,1.953125
2956,0.237671,-0.186523,0.925293,-3.295898,-0.854492,0.000000
2967,0.243164,-0.182373,0.942017,-6.774902,-3.295898,-2.441406
2979,0.237915,-0.173828,0.960327,-11.291503,-4.150391,-4.455566
2990,0.224731,-0.165283,0.963989,-15.075683,-3.540039,-5.371093
3001,0.217773,-0.162109,0.948364,-16.357422,-3.295898,-5.371093
3012,0.223877,-0.165771,0.926392,-12.817382,-10.314940,-6.652832
3023,0.230835,-0.169556,0.923828,-12.268065,-14.953612,-7.995605
3035,0.219482,-0.168091,0.946411,-12.390136,-16.601562,-8.178711
3046,0.201172,-0.169556,0.965942,-11.535644,-15.624999,-6.896972
3057,0.183350,-0.177246,0.979980,-10.681151,-13.549804,-5.187988
3069,0.171753,-0.172241,0.978638,-10.131835,-10.498046,-3.601074
3080,0.171387,-0.163086,0.973999,-8.789062,-6.958007,-2.319336
3091,0.178833,-0.158691,0.975342,-5.737304,-4.089355,-1.770019
3103,0.196777,-0.159424,0.978516,1.403808,-1.586914,-1.708984
3114,0.216431,-0.156250,0.985352,1.708984,-1.342773,-2.014160
3125,0.216675,-0.148315,0.995483,1.281738,-1.037598,-2.136230
3136,0.204834,-0.144165,0.995361,2.197266,-1.098633,-1.953125
3148,0.193237,-0.142700,0.984009,4.394531,-2.136230,-2.014160
3159,0.193359,-0.148560,0.983887,7.141113,-2.868652,-2.441406
3170,0.195679,-0.161133,0.982910,9.216309,-2.380371,-2.868652
3181,0.195312,-0.172852,0.981689,9.216309,-1.220703,-3.112793
3192,0.197144,-0.176147,0.979370,7.019042,0.000000,-3.234863
3204,0.201416,-0.174316,0.975464,1.708984,0.915527,-3.051758
3215,0.207153,-0.171021,0.970215,0.244141,0.305176,-3.112793
3226,0.210938,-0.165771,0.969238,-0.244141,-0.793457,-3.479004
3237,0.207642,-0.160400,0.971191,0.244141,-1.708984,-3.967285
3249,0.194580,-0.166016,0.972656,1.281738,-2.319336,-4.211426
3260,0.186401,-0.172729,0.976318,2.258301,-2.258301,-4.028320
3271,0.178833,-0.178833,0.981812,2.685547,-1.220703,-3.234863
3283,0.176514,-0.182617,0.985962,2.502441,0.671387,-2.136230
3294,0.185181,-0.184204,0.985352,2.258301,2.990722,-1.037598
3305,0.198486,-0.183350,0.982300,0.732422,5.981445,0.305176
3316,0.206421,-0.179077,0.979858,-0.305176,6.164550,0.000000
3327,0.211426,-0.172729,0.977173,-0.671387,5.432128,-0.549316
3339,0.216675,-0.166992,0.969238,-0.305176,4.028320,-0.793457
3350,0.214600,-0.165894,0.968872,0.244141,2.624511,-0.732422
3361,0.209717,-0.166382,0.971436,0.976562,1.831055,-0.671387
3372,0.205566,-0.170166,0.973022,1.770019,1.892090,-0.671387
3383,0.205688,-0.175659,0.971313,2.258301,2.685547,-0.488281
3395,0.210571,-0.181641,0.967041,1.525879,4.760742,0.000000
3406,0.214478,-0.186646,0.963623,0.061035,4.943848,-0.244141
3417,0.213501,-0.188721,0.962280,-1.464844,4.516602,-0.488281
3428,0.210693,-0.186890,0.959839,-2.319336,3.540039,-0.488281
3440,0.207520,-0.179443,0.954712,-2.441406,1.953125,-0.305176
3451,0.207031,-0.174927,0.955200,-1.953125,0.305176,-0.061035
3462,0.204102,-0.173096,0.958374,-0.976562,-0.976562,0.244141
3473,0.199219,-0.173096,0.963623,0.122070,-1.586914,0.793457
3484,0.198608,-0.172485,0.968140,0.915527,-1.281738,1.281738
3495,0.202759,-0.171021,0.968384,0.732422,1.220703,1.342773
3507,0.209839,-0.167847,0.964844,0.122070,1.892090,0.915527
3518,0.216675,-0.163086,0.961304,-0.061035,1.586914,0.244141
3529,0.220215,-0.159790,0.958618,0.366211,0.183105,-0.488281
3540,0.213135,-0.161255,0.959106,1.220703,-1.586914,-1.098633
3551,0.207275,-0.166260,0.960938,2.136230,-2.990722,-1.403808
3563,0.203125,-0.171265,0.962646,2.502441,-3.479004,-1.464844
3574,0.200195,-0.171875,0.964111,2.197266,-2.990722,-1.281738
3585,0.199585,-0.170776,0.966431,1.647949,-1.953125,-0.915527
3596,0.201416,-0.169189,0.969604,0.732422,0.915527,0.000000
3607,0.204102,-0.164673,0.972168,0.854492,2.319336,0.183105
3619,0.208252,-0.159790,0.972168,1.342773,2.929687,-0.122070
3630,0.214233,-0.157837,0.969971,1.770019,2.624511,-0.732422
3641,0.219238,-0.161255,0.961548,1.892090,1.525879,-1.464844
3652,0.217163,-0.166138,0.958862,1.831055,0.061035,-2.014160
3663,0.212402,-0.171753,0.957764,1.708984,-1.281738,-2.258301
3675,0.207520,-0.173950,0.958984,1.647949,-2.014160,-2.014160
3686,0.205566,-0.174805,0.963135,1.892090,-1.953125,-1.525879
3697,0.206421,-0.178833,0.965820,2.258301,-0.427246,-1.098633
3708,0.209595,-0.180786,0.966431,1.525879,0.061035,-1.098633
3720,0.213989,-0.178467,0.966064,0.549316,-0.305176,-1.220703
3731,0.216675,-0.175903,0.964355,-0.183105,-1.708984,-1.403808
3742,0.215210,-0.166626,0.971558,-0.183105,-3.479004,-1.770019
3753,0.210449,-0.166260,0.979980,0.732422,-4.577637,-2.075195
3765,0.206299,-0.169922,0.986450,2.441406,-4.394531,-1.831055
3776,0.205322,-0.171509,0.990967,4.028320,-3.234863,-1.159668
3787,0.206787,-0.169434,0.994019,4.943848,-1.525879,-0.854492
3798,0.209106,-0.166138,0.994629,5.859375,3.234863,-0.671387
3809,0.210205,-0.162231,0.990479,7.141113,5.493164,-0.610352
3821,0.210205,-0.155762,0.983398,9.521484,6.958007,-1.098633
3832,0.215820,-0.128540,0.975220,13.610839,7.873535,-2.380371
3843,0.217407,-0.113770,0.973389,21.484373,9.033203,-3.906250
3854,0.216553,-0.101929,0.974854,33.996582,10.559081,-4.882812
3866,0.215332,-0.091675,0.978760,50.598141,12.145995,-5.920410
3877,0.217041,-0.096191,0.980713,70.861816,14.221190,-8.117676
3888,0.215820,-0.115845,0.982056,116.333000,22.155760,-13.732909
3899,0.209839,-0.149048,0.980225,137.512207,28.442381,-15.869140
3911,0.211548,-0.199463,0.971436,154.418945,35.583496,-17.395020
3922,0.215088,-0.246094,0.955322,166.503891,41.564938,-18.554688
3933,0.228638,-0.329712,0.899292,174.865707,43.762203,-19.714355
3945,0.252075,-0.362061,0.870605,180.419907,41.625973,-20.935057
3956,0.273315,-0.386597,0.846924,184.631332,36.682129,-22.155760
3967,0.279663,-0.418579,0.825562,188.537582,30.822752,-22.460936
3979,0.272583,-0.451904,0.802246,193.176254,20.385740,-22.094725
3990,0.263550,-0.480835,0.783203,192.565903,17.028809,-23.681639
4001,0.260742,-0.512207,0.773315,189.392075,15.808105,-25.756834
4013,0.264771,-0.530151,0.760132,185.119614,15.808105,-27.404783
4024,0.261230,-0.538208,0.718018,183.227524,14.709472,-29.113768
4035,0.259888,-0.553833,0.693604,186.645493,11.596679,-32.104492
4047,0.265137,-0.578979,0.662720,195.434555,6.958007,-36.682129
4058,0.265381,-0.613892,0.629883,207.397446,0.549316,-41.137691
4069,0.252441,-0.649292,0.604614,233.703598,-13.977050,-47.668453
4081,0.226929,-0.686523,0.586182,247.924789,-18.005371,-50.231930
4092,0.200317,-0.734863,0.567261,259.033203,-18.432617,-51.879879
4103,0.182495,-0.793213,0.542603,263.366699,-16.174316,-52.124020
4115,0.163940,-0.885376,0.470459,260.437012,-12.512206,-51.269527
4126,0.168945,-0.903564,0.425659,252.868637,-8.544922,-49.743649
4137,0.183594,-0.896606,0.378418,244.140610,-5.798339,-48.217770
4149,0.192383,-0.865112,0.330933,239.685043,-6.164550,-47.363277
4160,0.187012,-0.835327,0.286743,261.230469,-15.441894,-49.255367
4171,0.169189,-0.838989,0.244507,282.226562,-19.165039,-51.086422
4183,0.147827,-0.878296,0.203979,300.354004,-20.141600,-52.124020
4194,0.127441,-0.943115,0.166016,308.410645,-18.493652,-51.574703
4205,0.095337,-1.029175,0.092529,302.185059,-14.404296,-49.743649
4217,0.099121,-1.020752,0.043457,284.362793,-8.789062,-47.485348
4228,0.117065,-0.980957,-0.018433,263.854980,-4.089355,-44.982906
4239,0.140625,-0.898315,-0.086670,249.328598,-3.784179,-43.945309
4251,0.153442,-0.815308,-0.155640,265.075684,-20.568846,-54.565426
4262,0.150635,-0.762085,-0.225220,296.386719,-33.752441,-64.270020
4273,0.130005,-0.748901,-0.290771,333.618134,-46.020504,-73.486328
4285,0.030151,-0.902222,-0.379761,363.647430,-53.100582,-79.711914
4296,-0.016235,-0.982056,-0.404053,372.619598,-52.490231,-81.665031
4308,-0.026855,-0.989624,-0.431519,356.140106,-45.349117,-79.467773
4319,-0.005493,-0.936523,-0.473755,325.073212,-35.705566,-74.401855
4330,0.014160,-0.877808,-0.528564,298.034668,-27.954100,-67.504883
4342,0.016602,-0.820801,-0.584839,287.597656,-22.521971,-51.879879
4353,0.003540,-0.788452,-0.620728,292.602539,-22.521971,-46.447750
4364,-0.019531,-0.778198,-0.649292,290.405273,-21.179197,-44.921871
4376,-0.060791,-0.785767,-0.687500,277.160645,-15.869140,-47.424313
4387,-0.063477,-0.808228,-0.705566,254.211411,-7.263183,-49.926754
4398,-0.052856,-0.814087,-0.733276,222.595200,1.525879,-47.912594
4410,-0.044067,-0.798218,-0.763794,186.889633,8.422852,-39.978027
4421,-0.046997,-0.760254,-0.793091,153.991699,13.061522,-27.893064
4432,-0.052246,-0.706055,-0.819458,108.154289,18.981934,-5.859375
4444,-0.049072,-0.661499,-0.839600,93.994133,20.080564,0.671387
4455,-0.043213,-0.649902,-0.854980,82.458488,19.409180,4.211426
4466,-0.049316,-0.641602,-0.879028,69.335938,17.395020,4.455566
4478,-0.055176,-0.642700,-0.895386,51.757809,14.892577,2.746582
4489,-0.054565,-0.657227,-0.915161,30.090330,12.145995,1.708984
4500,-0.053833,-0.668335,-0.928589,6.286621,8.850098,3.112793
4511,-0.061035,-0.673706,-0.928467,-16.967773,5.187988,6.958007
4523,-0.074829,-0.677246,-0.916260,-56.579586,2.929687,18.310547
4534,-0.082886,-0.681519,-0.898315,-74.462891,5.554199,23.681639
4545,-0.080688,-0.692505,-0.883789,-92.163078,9.155273,27.954100
4557,-0.057495,-0.729492,-0.883423,-110.229485,11.901855,31.188963
4568,-0.042969,-0.754517,-0.881958,-128.967285,11.962890,33.569336
4579,-0.040649,-0.784180,-0.865845,-148.010254,9.094238,34.973145
4591,-0.049438,-0.814087,-0.836548,-168.762192,5.554199,34.790039
4602,-0.056152,-0.839844,-0.804688,-193.786606,3.662109,32.958984
4614,-0.049805,-0.858765,-0.774780,-247.375473,6.286621,33.630371
4625,-0.032959,-0.868286,-0.746582,-263.427734,9.277344,41.015621
4636,-0.015137,-0.879639,-0.715820,-267.456055,12.084960,52.490231
4648,-0.003052,-0.975586,-0.644043,-265.930176,13.977050,64.819336
4659,0.006958,-1.027588,-0.609985,-272.338867,13.916015,73.425293
4671,0.023193,-1.069580,-0.573975,-293.334961,11.169433,76.721191
4682,0.032104,-1.083740,-0.531006,-324.035614,6.225585,76.721191
4693,0.032104,-1.058228,-0.474731,-356.506317,1.342773,75.256348
4705,0.027100,-1.014771,-0.405518,-394.775360,0.671387,72.753906
4716,0.021851,-0.961914,-0.330322,-391.784637,7.324218,73.547363
4727,0.036255,-0.907837,-0.259766,-376.769989,17.150879,75.988770
4738,0.130859,-0.867554,-0.139404,-356.262177,24.902342,78.369141
4750,0.172241,-0.859985,-0.091797,-336.486786,25.329588,78.002930
4761,0.194702,-0.852173,-0.050415,-318.725586,17.578125,73.669434
4773,0.202271,-0.837646,-0.004517,-302.856445,4.089355,65.551758
4784,0.191650,-0.811157,0.056519,-288.940430,-11.230468,54.382320
4795,0.169800,-0.788086,0.131348,-255.615219,-30.151365,33.630371
4807,0.152344,-0.776855,0.204712,-232.788071,-29.357908,28.747557
4818,0.145874,-0.781982,0.266724,-210.327133,-24.047850,26.794432
4829,0.154907,-0.880981,0.356689,-196.411118,-17.395020,25.878904
4841,0.172241,-0.939819,0.378662,-199.584946,-11.169433,25.878904
4852,0.189941,-0.948853,0.392334,-220.703110,-6.896972,28.076170
4863,0.192017,-0.893433,0.409790,-249.633774,-5.432128,32.287598
4874,0.184570,-0.794800,0.439941,-272.033691,-5.493164,35.949707
4886,0.178589,-0.700195,0.480835,-266.662598,-3.540039,35.217285
4897,0.177002,-0.645996,0.522583,-245.788559,-0.610352,31.982420
4908,0.182007,-0.640015,0.557861,-226.501450,2.502441,28.930662
4920,0.219116,-0.645020,0.609741,-215.576157,4.150391,27.221678
4931,0.235352,-0.625122,0.630493,-211.364731,2.868652,27.465818
4942,0.243042,-0.594238,0.647949,-209.167465,-1.525879,28.625486
4954,0.243286,-0.551880,0.666382,-206.603989,-8.483887,28.625486
4965,0.235962,-0.503906,0.690552,-202.697739,-17.028809,26.184080
4976,0.222534,-0.464233,0.722900,-182.495102,-31.799314,17.395020
4988,0.202515,-0.446411,0.764648,-166.381821,-32.836914,14.953612
4999,0.173462,-0.457520,0.810059,-153.381348,-26.245115,14.770507
5010,0.132812,-0.509766,0.870972,-150.024414,-13.427733,15.502929
5022,0.147827,-0.529419,0.873657,-157.897949,1.220703,16.723633
5033,0.187256,-0.495239,0.863159,-175.720200,12.390136,18.371582
5044,0.233398,-0.406616,0.852783,-198.547348,15.930175,20.019531
5056,0.260376,-0.298096,0.852783,-214.660629,10.559081,21.057127
5067,0.260742,-0.203247,0.878906,-190.490707,-13.122558,18.859863
5078,0.240845,-0.174316,0.911011,-160.034180,-20.751951,17.883301
5090,0.210449,-0.215942,0.928345,-137.084961,-21.179197,18.676758
5101,0.170898,-0.264771,0.936035,-130.554199,-14.587401,20.202635
5112,0.187744,-0.211792,0.928223,-139.099121,-5.004883,20.751951
5124,0.219849,-0.130615,0.918945,-153.137207,1.342773,19.592285
5135,0.251709,-0.044312,0.909180,-161.804184,0.366211,17.395020
5146,0.268555,0.029297,0.899414,-158.447266,-8.544922,14.587401
5157,0.262939,0.066528,0.906616,-116.455070,-40.283199,7.934570
5169,0.230469,0.054932,0.941650,-87.280266,-52.307125,5.859375
5180,0.177490,0.016479,0.993164,-64.392090,-53.771969,5.493164
5191,0.096436,-0.045410,1.063232,-52.917477,-44.250484,5.859375
5202,0.098022,-0.047974,1.067993,-51.940914,-28.259275,5.737304
5214,0.124512,-0.026123,1.057373,-57.678219,-12.084960,5.187988
5225,0.160400,0.015625,1.037598,-64.331055,-0.976562,4.882812
5236,0.189697,0.069580,1.019653,-66.284180,2.563476,4.455566
5247,0.203247,0.116211,1.013428,-46.020504,-7.568359,2.441406
5258,0.198486,0.140503,1.017334,-26.062010,-13.671874,0.732422
5270,0.181763,0.133545,1.024292,-6.408691,-16.479492,-1.037598
5281,0.158569,0.098267,1.035400,7.934570,-14.831542,-2.563476
5292,0.114258,0.003662,1.060181,13.854980,-8.117676,-3.234863
5303,0.118896,-0.007568,1.056396,10.314940,2.502441,-2.868652
5315,0.144775,0.017822,1.041260,0.671387,13.244628,-2.014160
5326,0.179688,0.063599,1.019409,-8.239746,19.897461,-2.136230
5337,0.208130,0.106934,0.998291,-10.437011,19.958496,-3.845215
5348,0.219971,0.135498,0.985840,15.441894,3.295898,-7.873535
5360,0.215576,0.146240,0.984741,40.039062,-6.530761,-8.117676
5371,0.201294,0.138550,0.993774,67.565918,-13.000487,-6.958007
5382,0.182129,0.114380,1.008423,94.360344,-14.648437,-5.493164
5393,0.147949,0.044067,1.039795,117.370598,-11.230468,-4.821777
5405,0.140869,0.004272,1.049683,135.131836,-3.967285,-5.249023
5416,0.143677,-0.036987,1.051025,147.094727,5.249023,-6.652832
5427,0.156982,-0.068726,1.039795,153.198242,14.099120,-8.911133
5438,0.175049,-0.076660,1.020020,154.724121,20.141600,-11.413573
5450,0.189941,-0.070801,0.996460,166.870102,19.714355,-19.104004
5461,0.198975,-0.059937,0.972778,192.321762,14.831542,-25.085447
5472,0.200073,-0.048584,0.948120,230.895981,9.643555,-29.907225
5484,0.185425,-0.108398,0.890381,275.512695,6.103515,-33.630371
5495,0.175049,-0.196289,0.855103,319.274902,4.699707,-37.353516
5506,0.168091,-0.297852,0.812744,355.529755,4.943848,-41.198727
5517,0.162842,-0.404663,0.768066,380.248993,5.432128,-45.166012
5529,0.154175,-0.514038,0.724609,393.920868,4.455566,-48.950191
5540,0.146240,-0.606323,0.684937,394.226044,-1.159668,-54.809566
5551,0.137695,-0.683838,0.645630,385.559052,-3.417969,-55.053707
5563,0.124023,-0.753784,0.601440,374.023407,-3.112793,-52.856441
5574,0.104492,-0.841919,0.510254,360.351532,-0.366211,-49.926754
5585,0.109497,-0.852539,0.456909,347.045868,3.234863,-47.729488
5597,0.125000,-0.839478,0.391479,338.256805,5.615234,-46.447750
5608,0.146118,-0.824219,0.315796,337.341278,4.089355,-45.959469
5619,0.157227,-0.827759,0.242676,344.848602,-3.112793,-46.874996
5630,0.139282,-0.873291,0.181641,366.088837,-23.254393,-50.903316
5642,0.102173,-0.929932,0.131714,365.783661,-27.465818,-51.513668
5653,0.064087,-0.967651,0.091187,358.703583,-26.672361,-50.415035
5665,0.027100,-0.943359,0.008057,349.548309,-22.766111,-49.133297
5676,0.027344,-0.892456,-0.036743,343.261688,-18.005371,-49.987789
5687,0.020874,-0.888062,-0.086792,343.261688,-12.390136,-53.039547
5699,0.021484,-0.911377,-0.139771,345.581024,-4.638672,-56.579586
5710,0.035278,-0.924683,-0.192505,343.139618,3.417969,-58.959957
5721,0.047607,-0.935547,-0.247681,323.974579,9.460449,-57.739254
5732,0.055176,-0.929565,-0.302856,312.011719,5.981445,-56.274410
5744,0.056152,-0.901001,-0.366943,302.734375,-0.488281,-56.213375
5755,0.005005,-0.833862,-0.481689,299.804688,-7.324218,-58.593746
5766,-0.035767,-0.820923,-0.512085,302.307129,-12.329101,-62.438961
5778,-0.076416,-0.821411,-0.534790,305.175781,-13.183593,-65.307617
5789,-0.104248,-0.826294,-0.562622,303.283691,-8.544922,-65.917969
5801,-0.104614,-0.820923,-0.597778,294.677734,-0.061035,-64.575195
5812,-0.087036,-0.822266,-0.637451,264.099121,15.075683,-57.678219
5823,-0.067993,-0.822021,-0.676758,243.286118,17.089844,-52.551266
5835,-0.056396,-0.800781,-0.713379,219.787582,14.343261,-47.302242
5846,-0.081177,-0.827881,-0.782104,194.274887,8.666992,-41.564938
5857,-0.114868,-0.838745,-0.794678,164.611801,2.563476,-34.912109
5869,-0.144409,-0.833374,-0.795166,130.371094,-1.342773,-27.038572
5880,-0.166992,-0.822754,-0.792480,94.604485,-1.281738,-16.967773
5891,-0.180542,-0.787354,-0.794312,60.485836,2.929687,-5.432128
5903,-0.171387,-0.720703,-0.805908,13.244628,15.624999,10.559081
5914,-0.145264,-0.655884,-0.824707,8.789062,18.371582,13.183593
5925,-0.118408,-0.614502,-0.842285,15.502929,17.089844,12.695312
5936,-0.096069,-0.636108,-0.849243,26.794432,12.817382,9.948730
5948,-0.099976,-0.682007,-0.839722,34.545898,7.446289,5.920410
5959,-0.107178,-0.720093,-0.825073,31.677244,2.746582,2.136230
5970,-0.123413,-0.745972,-0.809570,16.723633,0.061035,0.732422
5981,-0.146240,-0.770752,-0.798462,-6.103515,0.366211,2.990722
5993,-0.159912,-0.792725,-0.791748,-62.744137,10.742187,15.258788
6004,-0.154297,-0.807983,-0.789673,-94.360344,17.333984,23.559568
6015,-0.127441,-0.823486,-0.794434,-125.793449,21.362303,33.813477
6027,-0.082886,-0.876587,-0.804199,-156.066895,22.155760,45.410152
6038,-0.080933,-0.895996,-0.802124,-186.096176,20.080564,56.701656
6050,-0.086304,-0.909912,-0.797363,-217.285141,15.197753,65.795898
6061,-0.101685,-0.923950,-0.783081,-249.206528,8.300781,71.289062
6072,-0.122314,-0.947021,-0.753784,-280.700684,2.014160,73.242188
6084,-0.138794,-0.981323,-0.711914,-340.270966,1.708984,75.683594
6095,-0.134399,-1.011230,-0.662720,-365.783661,7.873535,80.932610
6106,-0.099976,-1.021729,-0.607178,-383.056610,14.465331,90.454094
6118,-0.020630,-0.978882,-0.486938,-388.183563,18.005371,101.318352
6129,0.003296,-0.951538,-0.412476,-380.920380,17.150879,108.276360
6140,0.024536,-0.943481,-0.330200,-366.149872,13.061522,108.276360
6152,0.050171,-0.946045,-0.250122,-352.050751,7.690429,102.416985
6163,0.071411,-0.938354,-0.174927,-344.299286,1.892090,93.688957
6174,0.078735,-0.910278,-0.105469,-333.618134,-7.324218,77.636719
6186,0.081421,-0.874390,-0.042603,-320.617676,-8.666992,72.204590
6197,0.082397,-0.870728,0.015015,-303.833008,-7.019042,68.969727
6208,0.067261,-0.993774,0.114136,-290.588379,-2.441406,68.664551
6220,0.072144,-1.089233,0.142212,-291.015625,4.211426,72.021484
6231,0.108765,-1.127563,0.154175,-311.401367,9.826660,78.491211
6242,0.152588,-1.071167,0.165649,-348.266571,8.300781,85.083000
6253,0.183716,-0.924316,0.194580,-387.756317,-2.990722,87.524406
6265,0.199951,-0.729126,0.256714,-402.282684,-37.902832,70.739746
6276,0.193237,-0.550171,0.347778,-358.581512,-49.499508,57.067867
6287,0.172119,-0.446777,0.445068,-292.968750,-52.612301,44.311520
6299,0.156250,-0.487305,0.600464,-225.524887,-48.522945,33.752441
6310,0.149902,-0.591675,0.655273,-172.790512,-39.672852,26.367186
6322,0.145752,-0.695312,0.692017,-144.775391,-27.404783,23.071287
6333,0.154663,-0.753540,0.709717,-144.042969,-13.305663,23.864744
6344,0.176758,-0.737061,0.709106,-164.550766,-0.366211,27.282713
6355,0.205322,-0.655640,0.701782,-220.214828,8.178711,30.822752
6367,0.233032,-0.560791,0.700317,-231.872543,2.136230,28.198240
6378,0.244873,-0.492188,0.709106,-230.590805,-6.103515,23.864744
6389,0.223267,-0.388306,0.749023,-223.876938,-12.634276,18.554688
6401,0.211548,-0.352417,0.789307,-214.843735,-15.563964,13.366698
6412,0.200806,-0.339966,0.822144,-202.148422,-12.695312,10.437011
6423,0.201904,-0.311768,0.829712,-189.697250,-3.417969,10.131835
6435,0.225830,-0.248779,0.826294,-181.213364,7.324218,10.986327
6446,0.263428,-0.173706,0.823242,-158.996582,8.117676,9.338379
6457,0.295776,-0.114258,0.825928,-137.390137,-5.249023,4.272461
6469,0.303589,-0.094360,0.837036,-111.145012,-23.620604,-3.051758
6480,0.243896,-0.178223,0.880249,-87.463371,-40.832516,-10.742187
6491,0.203003,-0.238403,0.914062,-72.509766,-51.757809,-15.808105
6503,0.168335,-0.271362,0.951538,-66.528320,-53.771969,-15.808105
6514,0.145386,-0.265991,0.980225,-66.040039,-47.302242,-11.047362
6525,0.136597,-0.231567,0.994995,-67.199707,-35.461426,-4.882812
6537,0.144775,-0.190063,1.000977,-65.734863,-11.047362,-0.976562
6548,0.164185,-0.162109,1.006104,-63.354488,-3.784179,-3.662109
6559,0.180908,-0.146484,1.015381,-59.509274,-0.549316,-6.286621
6570,0.179932,-0.128784,1.037720,-52.917477,0.061035,-7.019042
6582,0.171265,-0.131470,1.044434,-44.311520,-0.244141,-6.591796
6593,0.162842,-0.139893,1.048462,-35.400391,-0.671387,-5.981445
6604,0.152832,-0.149536,1.052124,-27.160643,-0.549316,-5.493164
6615,0.144043,-0.160767,1.056396,-20.080564,0.671387,-4.699707
6627,0.141113,-0.172485,1.058838,-14.343261,3.601074,-3.356933
6638,0.144897,-0.173584,1.055664,-9.582520,13.854980,-0.488281
6649,0.153687,-0.160645,1.048462,-8.789062,18.676758,0.305176
6660,0.167480,-0.145142,1.036377,-6.347656,21.362303,0.488281
6672,0.203369,-0.134521,1.007324,-2.014160,20.935057,-0.122070
6683,0.212524,-0.137451,0.995850,3.295898,17.639160,-0.976562
6694,0.210693,-0.154419,0.992676,9.033203,12.573241,-1.403808
6705,0.199829,-0.188721,0.996948,13.854980,7.629394,-1.281738
6717,0.186768,-0.221558,1.003418,14.709472,4.699707,-1.525879
6728,0.178955,-0.235596,1.007080,0.366211,7.141113,-2.136230
6739,0.181152,-0.224609,1.003296,-8.605957,9.887695,-0.915527
6750,0.189941,-0.194946,0.993896,-12.878417,11.474608,0.610352
6761,0.197388,-0.160767,0.983398,-10.437011,11.291503,2.014160
6773,0.202271,-0.123535,0.973999,-2.197266,9.521484,3.356933
6784,0.196655,-0.139771,0.973633,9.033203,7.141113,4.394531
6795,0.186035,-0.185303,0.975098,19.348145,5.615234,4.821777
6806,0.177612,-0.233154,0.976807,23.620604,6.042480,4.577637
6818,0.175903,-0.259033,0.976562,19.287109,8.544922,4.333496
6829,0.181274,-0.254883,0.973389,-6.225585,16.113281,4.272461
6840,0.191650,-0.227417,0.966187,-18.615723,18.554688,3.784179
6851,0.205322,-0.189331,0.956665,-25.817869,18.859863,3.173828
6863,0.229126,-0.121460,0.941895,-26.184080,16.845703,2.868652
6874,0.234131,-0.102783,0.937866,-20.385740,13.183593,2.746582
6885,0.234497,-0.103149,0.936157,-10.192870,8.911133,2.380371
6897,0.232666,-0.121216,0.936279,1.708984,5.126953,1.831055
6908,0.229248,-0.145630,0.938232,11.718749,2.441406,1.525879
6919,0.223877,-0.165894,0.941895,18.432617,0.305176,2.075195
6930,0.220825,-0.177979,0.944824,15.258788,0.000000,1.831055
6941,0.222290,-0.179932,0.944336,9.704590,-0.549316,1.037598
6953,0.224365,-0.172729,0.941895,3.845215,-1.831055,-0.244141
6964,0.226196,-0.140869,0.939697,-0.061035,-3.906250,-1.647949
6975,0.227173,-0.122070,0.939941,-0.671387,-6.408691,-3.417969
6986,0.228394,-0.114258,0.941284,2.502441,-9.155273,-5.615234
6998,0.230469,-0.123291,0.943237,9.216309,-12.023925,-7.629394
7009,0.227173,-0.145752,0.946533,17.822266,-14.953612,-8.483887
7020,0.215576,-0.175903,0.952759,30.273436,-17.944336,-6.835937
7032,0.201050,-0.210449,0.962524,29.785154,-15.991210,-5.554199
7043,0.189819,-0.245483,0.972656,23.254393,-11.474608,-4.211426
7054,0.184326,-0.250000,0.978027,11.840819,-5.737304,-3.112793
7065,0.199219,-0.226807,0.973267,-0.793457,-0.610352,-2.746582
7077,0.216064,-0.201294,0.965698,-11.291503,2.502441,-3.479004
7088,0.225342,-0.172852,0.961182,-17.761230,3.356933,-4.455566
7099,0.228638,-0.147705,0.962769,-18.920898,2.563476,-5.187988
7110,0.227295,-0.136597,0.966675,-8.300781,-0.305176,-5.187988
7122,0.221313,-0.144653,0.970947,-0.976562,-0.976562,-4.272461
7133,0.212646,-0.166382,0.977173,4.638672,-0.610352,-2.929687
7144,0.203979,-0.192017,0.984863,6.958007,0.793457,-1.647949
7155,0.197632,-0.216675,0.994019,5.798339,2.624511,-0.549316
7166,0.197632,-0.210815,0.996460,2.319336,4.028320,-0.122070
7178,0.197998,-0.198853,0.995361,-1.403808,4.577637,-0.366211
7189,0.198242,-0.185547,0.990845,-3.479004,4.516602,-0.976562
7200,0.199707,-0.173218,0.985962,-2.990722,3.845215,-1.464844
7211,0.201172,-0.160767,0.982056,4.272461,2.136230,-2.319336
7222,0.202026,-0.152222,0.979492,9.338379,1.525879,-3.540039
7234,0.202637,-0.153198,0.977905,14.038085,1.281738,-4.699707
7245,0.201782,-0.162231,0.976440,17.700195,1.525879,-5.065917
7256,0.199097,-0.188843,0.971924,19.836426,2.258301,-4.577637
7267,0.200317,-0.205566,0.968994,19.958496,3.479004,-3.662109
7278,0.202026,-0.220581,0.964355,17.700195,4.882812,-2.563476
7290,0.205566,-0.227173,0.958252,12.939452,6.103515,-1.342773
7301,0.211304,-0.220337,0.951782,6.713867,6.591796,-0.122070
7312,0.218262,-0.203857,0.946289,-2.563476,4.516602,0.488281
7324,0.224854,-0.187500,0.942627,-3.234863,2.197266,-0.061035
7335,0.227173,-0.176758,0.941040,-1.525879,-0.305176,-0.488281
7346,0.220337,-0.173828,0.945190,1.281738,-2.380371,-0.854492
7357,0.215698,-0.181396,0.950073,3.601074,-3.540039,-1.220703
7368,0.212280,-0.190063,0.954712,4.394531,-3.540039,-1.525879
7380,0.209473,-0.198975,0.956665,3.662109,-2.624511,-1.586914
7391,0.207764,-0.206421,0.956421,1.586914,-1.403808,-1.708984
7402,0.208618,-0.210938,0.955078,-3.845215,0.305176,-1.831055
7413,0.210205,-0.210571,0.952637,-5.371093,-0.244141,-1.464844
7425,0.210327,-0.204346,0.950073,-5.004883,-1.647949,-0.976562
7436,0.208740,-0.196167,0.949219,-2.868652,-3.234863,-0.549316
7447,0.206665,-0.187256,0.956421,0.427246,-4.394531,-0.061035
7458,0.208008,-0.184814,0.962036,4.394531,-4.882812,0.244141
7469,0.209595,-0.184692,0.964966,8.544922,-4.882812,0.366211
7481,0.209961,-0.190186,0.965454,12.451171,-4.699707,0.366211
7492,0.209473,-0.204468,0.966309,15.502929,-4.577637,0.427246
7503,0.207031,-0.223267,0.969238,15.869140,-3.601074,0.915527
7514,0.202515,-0.240601,0.970947,11.962890,-2.441406,1.037598
7526,0.200317,-0.249878,0.968384,6.286621,-1.220703,1.037598
7537,0.203247,-0.245361,0.964478,0.915527,-0.427246,0.915527
7548,0.210449,-0.215454,0.960327,-2.380371,-0.122070,0.732422
7559,0.212646,-0.201660,0.958374,-3.112793,-0.122070,0.488281
7570,0.215820,-0.197266,0.955566,-1.708984,-0.244141,-0.061035
7582,0.217651,-0.201782,0.953857,0.488281,-0.671387,-0.732422
7593,0.217651,-0.207397,0.955444,2.136230,-1.586914,-1.098633
7604,0.216187,-0.209473,0.960205,2.136230,-3.295898,-0.549316
7615,0.212646,-0.209106,0.966064,1.525879,-3.479004,-0.122070
7626,0.207153,-0.208618,0.971802,1.220703,-3.112793,0.122070
7638,0.202881,-0.208862,0.976929,1.220703,-2.258301,0.244141
7649,0.200562,-0.208008,0.981323,1.525879,-1.159668,0.427246
7660,0.198486,-0.204590,0.982666,2.258301,-0.061035,0.671387
7671,0.196777,-0.200806,0.986328,3.540039,1.220703,0.732422
7682,0.197632,-0.195435,0.993164,5.371093,3.112793,0.488281
7694,0.196899,-0.183960,0.999512,8.300781,5.737304,0.366211
7705,0.193848,-0.160034,0.999268,23.010252,13.732909,2.258301
7716,0.193604,-0.122559,0.992798,38.574219,18.005371,3.234863
7727,0.199463,-0.091431,0.987549,62.438961,21.911619,2.746582
7739,0.217529,-0.112427,0.970703,93.688957,25.573729,0.000000
7750,0.223999,-0.156372,0.954468,126.525871,28.442381,-3.784179
7761,0.229980,-0.209351,0.935303,154.602051,29.907225,-6.896972
7772,0.235596,-0.261108,0.915039,175.109848,29.479979,-9.338379
7784,0.240601,-0.302002,0.893311,188.049301,27.404783,-11.535644
7795,0.247192,-0.324219,0.869263,201.232895,19.653320,-17.578125
7806,0.251099,-0.338989,0.844849,208.618149,14.465331,-21.850584
7818,0.246338,-0.369019,0.824341,217.407211,10.437011,-26.245115
7829,0.234009,-0.418701,0.807861,223.266586,9.460449,-29.968260
7840,0.224243,-0.500610,0.768555,223.083481,11.474608,-32.714844
7851,0.234741,-0.510254,0.744263,219.482407,14.160155,-35.034180
7863,0.245117,-0.520630,0.714966,217.895493,15.075683,-37.719727
7874,0.249512,-0.538330,0.682983,221.069321,13.732909,-41.259762
7885,0.245850,-0.562012,0.650024,229.309067,10.437011,-45.715328
7897,0.235962,-0.598389,0.615479,251.892075,2.380371,-55.725094
7908,0.221436,-0.655884,0.580688,259.887695,0.427246,-58.471676
7919,0.200195,-0.727417,0.545654,263.061523,0.427246,-58.288570
7930,0.182007,-0.794556,0.464844,261.657715,1.464844,-57.189938
7942,0.191650,-0.778809,0.414307,260.620117,0.976562,-57.434078
7953,0.189697,-0.783691,0.359497,265.869141,-2.624511,-59.631344
7964,0.180176,-0.795654,0.303833,277.832031,-8.605957,-63.049313
7976,0.166504,-0.812744,0.251953,294.006348,-15.258788,-67.687988
7987,0.142334,-0.865601,0.203247,322.326630,-26.000975,-77.941895
7998,0.110596,-0.953491,0.156616,322.204559,-27.404783,-79.895020
8010,0.082520,-1.031494,0.120117,311.523438,-25.329588,-77.941895
8021,0.049072,-1.071777,0.060913,294.433594,-21.057127,-73.791504
8032,0.051758,-1.044189,0.017944,275.512695,-16.357422,-69.702148
8044,0.058472,-1.000732,-0.033325,260.314941,-13.427733,-66.894531
8055,0.054443,-0.975220,-0.087402,253.173813,-12.878417,-64.697266
8066,0.044678,-0.963623,-0.138428,253.723129,-13.549804,-62.622066
8078,0.033569,-0.955444,-0.183960,263.427734,-14.282226,-59.692379
8089,0.023071,-0.950928,-0.227173,265.075684,-13.671874,-59.265133
8101,0.019775,-0.933228,-0.262573,264.282227,-14.648437,-60.363766
8112,0.007202,-0.874634,-0.367188,265.441895,-17.150879,-63.415524
8123,-0.005859,-0.858765,-0.416992,270.263672,-18.859863,-67.260742
8135,-0.019653,-0.844604,-0.459839,277.282715,-20.019531,-70.922852
8146,-0.044922,-0.848145,-0.498779,284.240723,-21.362303,-73.913574
8157,-0.072510,-0.860107,-0.535645,285.827637,-19.226074,-77.819824
8169,-0.085083,-0.869873,-0.565918,276.184082,-15.624999,-77.758789
8180,-0.087524,-0.875854,-0.590698,259.765625,-11.779784,-75.927734
8192,-0.103882,-0.872314,-0.641357,238.220200,-8.239746,-72.570801
8203,-0.108643,-0.848267,-0.669678,213.745102,-5.249023,-67.810059
8214,-0.110840,-0.818604,-0.699707,189.758286,-3.295898,-62.194820
8226,-0.111450,-0.787109,-0.729370,169.372543,-2.807617,-56.701656
8237,-0.107544,-0.760986,-0.755493,154.663086,-3.906250,-52.001949
8248,-0.114258,-0.765991,-0.775024,140.014648,-7.324218,-41.870113
8260,-0.137573,-0.793091,-0.786133,128.417969,-7.080078,-34.667969
8271,-0.157715,-0.819824,-0.791260,106.872551,-5.187988,-26.245115
8282,-0.164185,-0.851074,-0.809082,76.904297,-2.380371,-16.479492
8294,-0.163574,-0.837158,-0.818848,43.762203,0.854492,-5.126953
8305,-0.164307,-0.807495,-0.828613,13.183593,4.028320,6.652832
8316,-0.159912,-0.782959,-0.837280,-11.108397,6.713867,16.845703
8328,-0.150146,-0.776855,-0.843018,-28.930662,8.300781,24.536131
8339,-0.144653,-0.788696,-0.841187,-60.485836,7.324218,34.545898
8350,-0.146851,-0.808594,-0.832764,-81.603996,6.103515,38.024902
8361,-0.148560,-0.824097,-0.822510,-106.323235,5.432128,41.687008
8373,-0.137329,-0.824219,-0.797852,-130.615234,5.371093,46.142574
8384,-0.131714,-0.819336,-0.778931,-150.756836,5.676269,51.025387
8396,-0.128296,-0.826782,-0.752441,-165.283188,6.469726,55.847164
8407,-0.121460,-0.845459,-0.723022,-174.377426,8.178711,60.363766
8418,-0.108032,-0.864990,-0.692993,-180.541977,10.498046,64.514160
8430,-0.095703,-0.890747,-0.662231,-195.617661,13.305663,68.786621
8441,-0.089478,-0.924561,-0.631592,-208.801254,13.916015,68.664551
8452,-0.084106,-0.960693,-0.601074,-227.722153,14.465331,68.542480
8464,-0.050293,-1.013062,-0.536865,-249.084457,14.953612,70.678711
8475,-0.037476,-1.023804,-0.500366,-269.042969,15.930175,76.477051
8487,-0.026001,-1.011841,-0.463745,-286.804199,18.066406,84.777824
8498,-0.007935,-0.981689,-0.428467,-301.208496,20.629881,93.078606
8509,0.010376,-0.954102,-0.392090,-308.654785,22.094725,99.609367
8521,0.025146,-0.936523,-0.348511,-300.292969,18.615723,102.478020
8532,0.042114,-0.936157,-0.298462,-294.433594,14.587401,97.900383
8543,0.060425,-0.960815,-0.244995,-296.630859,10.437011,91.674797
8555,0.089600,-0.980957,-0.138916,-309.265137,6.713867,85.937492
8566,0.102173,-0.948120,-0.087402,-325.683563,3.662109,81.542961
8577,0.109497,-0.902466,-0.033325,-334.960907,1.708984,78.247070
8589,0.110962,-0.873413,0.025269,-332.458466,1.525879,75.073242
8600,0.119751,-0.877808,0.080933,-323.364227,3.967285,71.777344
8611,0.136108,-0.902344,0.131226,-314.758301,13.671874,71.777344
8622,0.145020,-0.953369,0.174316,-322.143524,18.066406,77.209473
8634,0.154419,-0.998169,0.208252,-341.735809,19.836426,83.435051
8645,0.203979,-0.872925,0.270264,-367.370575,17.150879,87.402336
8656,0.212524,-0.753296,0.319824,-384.643524,11.230468,87.768547
8667,0.206421,-0.676392,0.380615,-384.216278,6.164550,85.144035
8679,0.200317,-0.642578,0.433716,-370.605438,5.981445,81.787102
8690,0.207397,-0.591187,0.473389,-356.323212,11.413573,79.650879
8701,0.231567,-0.510010,0.512207,-342.712372,25.939939,76.721191
8713,0.263672,-0.432739,0.547974,-334.899872,29.357908,71.411133
8724,0.292969,-0.361206,0.581787,-321.960419,28.686522,63.598629
8735,0.304688,-0.321777,0.619507,-304.321289,24.658201,56.762691
8746,0.313599,-0.291138,0.677368,-287.231445,19.287109,52.307125
8758,0.340210,-0.227417,0.707153,-274.902344,13.000487,48.767086
8769,0.368408,-0.145996,0.738159,-263.244629,4.516602,45.654293
8780,0.372192,-0.077515,0.776489,-243.530258,-6.286621,42.785641
8792,0.350830,-0.027832,0.819702,-173.828110,-26.672361,33.935547
8803,0.328247,0.006714,0.863037,-138.061523,-32.897949,25.024412
8814,0.318237,0.012695,0.903809,-107.299797,-36.682129,15.136718
8826,0.315186,-0.004272,0.942139,-79.956055,-38.452148,7.812500
8837,0.285889,-0.095093,1.011597,-56.457516,-37.536621,4.455566
8848,0.261841,-0.163940,1.039795,-40.893551,-33.142090,3.662109
8859,0.247559,-0.229126,1.058472,-37.841797,-25.146482,3.967285
8871,0.253418,-0.240234,1.061890,-48.583981,-15.075683,4.577637
8882,0.276611,-0.184814,1.053345,-68.054199,-5.981445,5.310058
8893,0.301880,-0.091064,1.042358,-85.632317,0.183105,5.615234
8904,0.317505,0.004272,1.038940,-68.237305,-1.159668,3.234863
8916,0.321411,0.066650,1.040405,-36.315918,-2.746582,-0.854492
8927,0.316772,0.052246,1.035889,0.671387,-3.479004,-5.432128
8938,0.318726,0.017822,1.029663,34.057617,-3.906250,-8.789062
8949,0.320923,-0.016235,1.024414,60.485836,-4.577637,-10.620116
8961,0.317505,-0.060181,1.022583,80.688469,-5.737304,-12.695312
8972,0.307617,-0.118530,1.023438,95.031731,-7.019042,-15.869140
8983,0.297852,-0.181763,1.024414,101.562492,-6.774902,-20.324705
8994,0.291016,-0.228149,1.021973,95.520012,-4.150391,-19.104004
9006,0.285522,-0.237061,1.016479,88.928215,-0.061035,-16.418457
9017,0.283203,-0.208496,1.008789,87.219231,4.760742,-15.014647
9028,0.308716,-0.129150,0.969360,94.543449,8.239746,-16.601562
9040,0.328491,-0.118408,0.942505,114.013664,8.056641,-20.996092
9051,0.328003,-0.149414,0.919678,144.592285,3.417969,-26.550291
9062,0.304321,-0.218506,0.906006,177.307114,-2.868652,-31.799314
9073,0.273560,-0.308594,0.897583,213.073715,-5.981445,-38.269043
9085,0.254028,-0.384033,0.886108,212.402328,-1.953125,-39.428711
9096,0.250610,-0.421875,0.867676,207.214340,2.075195,-40.527340
9107,0.256958,-0.437134,0.844116,205.261215,3.967285,-42.358395
9119,0.266724,-0.459595,0.788086,209.594711,3.540039,-45.043941
9130,0.269409,-0.471558,0.750244,219.177231,1.342773,-48.156734
9141,0.275635,-0.481079,0.703613,232.360825,-2.502441,-51.391598
9152,0.273315,-0.501953,0.651245,249.816879,-8.728027,-54.565426
9164,0.257446,-0.523193,0.598633,271.484375,-16.662598,-58.044430
9175,0.231689,-0.557983,0.551758,320.068359,-32.348633,-69.213867
9187,0.201782,-0.619751,0.509399,340.698212,-36.743164,-75.744629
9198,0.173706,-0.685059,0.467773,354.736298,-38.452148,-81.481926
9209,0.132812,-0.816650,0.379517,362.060516,-38.391113,-85.693352
9221,0.110718,-0.894897,0.340576,363.159149,-37.109375,-87.707512
9232,0.088257,-0.970703,0.308350,357.299774,-33.691406,-86.914055
9244,0.073853,-1.033081,0.273560,343.078583,-27.282713,-82.214348
9255,0.069092,-1.056519,0.233521,294.250488,-11.474608,-64.575195
9266,0.070679,-1.038574,0.189209,270.690918,-6.774902,-57.983395
9278,0.077393,-0.984863,0.136597,255.859360,-6.103515,-55.969234
9289,0.085693,-0.911133,0.075806,253.540024,-9.155273,-58.410641
9300,0.077271,-0.817261,-0.054443,264.221191,-14.770507,-64.392090
9312,0.055054,-0.843506,-0.114380,284.301758,-20.507811,-71.777344
9323,0.026123,-0.896973,-0.166992,304.992676,-24.475096,-77.270508
9334,-0.000366,-0.935791,-0.210327,317.504883,-26.062010,-79.467773
9346,-0.020508,-0.948975,-0.249878,312.011719,-23.925779,-78.186035
9357,-0.033936,-0.945435,-0.289429,301.513672,-21.423338,-77.148438
9368,-0.037842,-0.927002,-0.329956,291.442871,-19.836426,-76.293945
9380,-0.031494,-0.861084,-0.421509,284.729004,-19.470215,-75.683594
9391,-0.030884,-0.827637,-0.464111,283.020020,-20.141600,-76.110840
9403,-0.036987,-0.819458,-0.504272,286.437988,-21.972654,-77.819824
9414,-0.058350,-0.848877,-0.538330,291.870117,-23.803709,-79.101562
9425,-0.089722,-0.884399,-0.562378,293.701172,-23.437498,-77.636719
9437,-0.113403,-0.885742,-0.582764,268.920898,-14.221190,-67.810059
9448,-0.124268,-0.869507,-0.608276,245.178207,-6.835937,-61.706539
9460,-0.133179,-0.851929,-0.640137,220.092758,0.915527,-55.480953
9471,-0.130005,-0.772705,-0.710327,197.998032,7.507324,-49.377438
9482,-0.120483,-0.752808,-0.750610,182.006821,11.718749,-43.395992
9494,-0.117798,-0.745239,-0.788330,171.630844,12.756347,-38.146973
9505,-0.126343,-0.740845,-0.817627,161.560043,10.803222,-33.935547
9516,-0.146118,-0.739990,-0.837769,146.240234,7.263183,-30.456541
9528,-0.170776,-0.737305,-0.849731,99.670403,2.807617,-23.620604
9539,-0.187134,-0.724854,-0.858154,75.256348,3.295898,-19.042969
9550,-0.188354,-0.700928,-0.867432,55.541988,4.577637,-13.488769
9561,-0.179077,-0.662354,-0.881470,42.114254,5.798339,-7.080078
9573,-0.174805,-0.660767,-0.885864,32.836914,6.835937,-0.427246
9584,-0.160767,-0.649170,-0.891602,23.681639,6.896972,5.432128
9595,-0.144165,-0.626465,-0.895630,14.343261,4.699707,9.338379
9606,-0.141968,-0.613892,-0.894775,7.995605,0.244141,10.192870
9618,-0.157104,-0.630981,-0.885864,-0.122070,-6.774902,7.080078
9629,-0.176880,-0.673828,-0.868652,-13.183593,-6.103515,7.934570
9640,-0.183472,-0.709229,-0.849731,-34.484863,-2.929687,12.268065
9652,-0.166504,-0.726685,-0.833252,-58.288570,1.464844,19.653320
9663,-0.147461,-0.722046,-0.830933,-79.589844,5.371093,28.381346
9674,-0.129395,-0.720337,-0.828125,-96.740715,7.446289,36.499023
9685,-0.120483,-0.726562,-0.820801,-110.351555,6.958007,42.846676
9697,-0.113525,-0.734863,-0.806763,-121.398918,4.455566,46.447750
9708,-0.104858,-0.742798,-0.786499,-139.160156,-3.051758,47.302242
9720,-0.104980,-0.758545,-0.758545,-145.080566,-6.042480,47.180172
9731,-0.115601,-0.780762,-0.725098,-150.634766,-6.530761,47.363277
9743,-0.120117,-0.821655,-0.664795,-158.752441,-4.455566,47.363277
9754,-0.114014,-0.843384,-0.643555,-168.945297,-0.671387,47.790524
9765,-0.098267,-0.854370,-0.628052,-179.626450,3.662109,49.499508
9777,-0.078125,-0.868530,-0.615601,-189.392075,7.324218,52.490231
9788,-0.059082,-0.896606,-0.603882,-196.777328,9.338379,56.579586
9799,-0.041138,-0.922363,-0.587891,-210.327133,6.164550,67.199707
9811,-0.037354,-0.938599,-0.564331,-218.688950,2.136230,72.387695
9822,-0.053223,-0.950806,-0.531738,-227.478012,-0.061035,75.744629
9833,-0.088867,-1.008911,-0.441528,-237.976059,2.014160,77.575684
9845,-0.076904,-1.028931,-0.394165,-253.845200,8.605957,79.284668
9856,-0.048340,-1.037231,-0.355347,-276.306152,17.761230,82.580559
9867,-0.012939,-1.036987,-0.328003,-299.987793,26.611326,88.623039
9879,0.023560,-1.019287,-0.301880,-318.542480,32.653809,96.557610
9890,0.049072,-0.978638,-0.268188,-333.190887,31.127928,106.567375
9902,0.057129,-0.937256,-0.222656,-328.491180,26.428221,104.980461
9913,0.062500,-0.901855,-0.165161,-316.223145,22.216795,99.609367
9924,0.106445,-0.838989,-0.032471,-298.706055,19.042969,92.468254
9936,0.127808,-0.812256,0.031982,-278.442383,16.967773,85.083000
9947,0.149414,-0.791504,0.090210,-256.530762,15.502929,78.002930
9958,0.166870,-0.789551,0.140625,-234.680161,14.160155,71.166992
9969,0.173462,-0.805664,0.185913,-214.965805,12.878417,64.514160
9981,0.179199,-0.826416,0.226929,-189.575180,12.817382,54.199215
9992,0.190918,-0.843018,0.259766,-185.607895,13.061522,51.513668
10003,0.203369,-0.854492,0.285522,-183.715805,12.329101,50.537106
10015,0.220703,-0.866089,0.332275,-182.006821,10.131835,50.292965
10026,0.228394,-0.855835,0.360596,-180.786118,6.652832,49.743649
10037,0.235229,-0.831055,0.392090,-179.382309,2.685547,48.767086
10049,0.237305,-0.804565,0.425537,-176.147446,-0.488281,47.790524
10060,0.236206,-0.790283,0.457886,-170.166000,-1.831055,46.997066
10071,0.240479,-0.785522,0.483521,-158.874512,-0.122070,45.776363
10083,0.255493,-0.780151,0.504028,-159.057617,0.122070,45.043941
10094,0.271118,-0.776855,0.524902,-162.536606,-0.915527,44.616695
10105,0.287354,-0.774170,0.564087,-168.334946,-2.685547,44.860836
10117,0.286987,-0.761963,0.579590,-176.818832,-4.638672,46.142574
10128,0.279663,-0.726685,0.598022,-187.194809,-5.615234,48.522945
10139,0.271851,-0.670898,0.620117,-195.800766,-4.943848,51.269527
10151,0.273560,-0.604370,0.644775,-198.791489,-2.807617,52.551266
10162,0.285156,-0.547852,0.669189,-186.523422,1.831055,47.119137
10173,0.301392,-0.516968,0.689209,-177.368149,2.746582,42.480465
10185,0.316528,-0.505249,0.702881,-169.616684,2.258301,39.123535
10196,0.336792,-0.472900,0.721191,-163.391098,0.793457,37.841797
10207,0.345947,-0.443359,0.736084,-157.470703,-1.647949,37.597656
10219,0.345947,-0.423462,0.757935,-150.207520,-5.004883,36.682129
10230,0.340942,-0.403076,0.783691,-142.272949,-7.934570,34.729004
10241,0.338989,-0.372192,0.811890,-134.826660,-9.399414,32.348633
10253,0.340576,-0.344482,0.838623,-117.492668,-8.605957,27.221678
10264,0.348022,-0.323608,0.859619,-106.506340,-8.056641,24.719236
10275,0.363037,-0.298706,0.876343,-94.238274,-8.605957,22.277830
10287,0.381714,-0.260498,0.912598,-79.772949,-10.192870,19.836426
10298,0.374634,-0.269043,0.928711,-63.598629,-11.352538,17.883301
10310,0.365967,-0.282715,0.942261,-49.072262,-10.437011,16.418457
10321,0.361450,-0.292480,0.955322,-39.794922,-7.751464,14.831542
10332,0.360962,-0.300293,0.965942,-36.254883,-1.342773,11.169433
10343,0.360596,-0.308228,0.970947,-38.696289,1.403808,10.253905
10355,0.357422,-0.304688,0.971558,-41.748043,4.394531,10.620116
10366,0.353882,-0.283081,0.966431,-43.029781,7.263183,11.657714
10377,0.358643,-0.220703,0.942871,-40.649410,9.521484,11.779784
10388,0.365234,-0.207153,0.929321,-33.996582,10.742187,10.070800
10400,0.369385,-0.221558,0.919922,-23.620604,10.742187,7.263183
10411,0.369507,-0.254272,0.918457,-13.305663,9.704590,4.699707
10422,0.367676,-0.286865,0.920532,-7.812500,8.239746,2.990722
10434,0.369629,-0.303101,0.919556,-14.343261,5.004883,1.281738
10445,0.375610,-0.292969,0.916504,-19.531250,2.868652,0.732422
10456,0.377686,-0.266724,0.913330,-20.385740,0.610352,0.305176
10467,0.366211,-0.242676,0.910034,-16.418457,-0.976562,-0.122070
10479,0.362061,-0.248291,0.911255,-10.437011,-1.586914,-0.244141
10490,0.359375,-0.261963,0.913574,-5.126953,-1.342773,0.061035
10501,0.355835,-0.279785,0.916382,-2.136230,-0.610352,0.427246
10512,0.349731,-0.301025,0.919678,-2.441406,0.488281,0.854492
10523,0.342163,-0.319336,0.920532,-15.808105,5.310058,3.295898
10535,0.338989,-0.314819,0.916748,-27.038572,8.972168,5.126953
10546,0.345703,-0.277588,0.910400,-35.583496,11.962890,6.286621
10557,0.361572,-0.224731,0.902710,-36.987305,12.878417,6.164550
10568,0.385376,-0.155151,0.888672,-30.334471,11.230468,4.882812
10580,0.384766,-0.152222,0.885986,-17.822266,7.934570,2.990722
10591,0.383179,-0.168579,0.884888,-3.234863,4.089355,0.976562
10602,0.378540,-0.197021,0.884399,9.582520,0.427246,-0.610352
10613,0.366821,-0.229248,0.888916,18.066406,-2.685547,-1.708984
10625,0.350342,-0.267700,0.898315,18.127441,-3.967285,-1.953125
10636,0.336060,-0.304321,0.906128,8.483887,-0.915527,-0.427246
10647,0.331543,-0.319702,0.909180,-5.737304,3.479004,1.647949
10658,0.348511,-0.255737,0.901978,-19.287109,7.324218,3.417969
10670,0.360962,-0.205566,0.897217,-26.428221,9.277344,4.272461
10681,0.370117,-0.173340,0.894287,-24.536131,9.155273,4.028320
10692,0.374878,-0.167358,0.893188,-15.136718,7.202148,2.502441
10703,0.374268,-0.183228,0.894897,-2.380371,4.333496,0.183105
10715,0.368286,-0.214111,0.899170,14.587401,0.244141,-2.807617
10726,0.361450,-0.244751,0.903076,14.038085,0.671387,-2.502441
10737,0.357544,-0.262085,0.904663,9.338379,2.136230,-1.403808
10748,0.354980,-0.272095,0.903320,2.868652,4.211426,-0.061035
10760,0.359375,-0.266113,0.894775,-4.699707,6.591796,1.342773
10771,0.369873,-0.242432,0.887939,-11.901855,8.666992,2.502441
10782,0.381592,-0.213501,0.880981,-15.624999,9.582520,3.051758
10793,0.391479,-0.189697,0.876831,-14.160155,8.972168,2.868652
10805,0.398315,-0.179932,0.876465,-8.117676,6.774902,2.014160
10816,0.400635,-0.183960,0.880249,6.835937,-0.183105,-0.671387
10827,0.401367,-0.195068,0.889282,10.620116,-3.356933,-2.319336
10838,0.399780,-0.212036,0.902466,10.498046,-5.493164,-3.356933
10849,0.393799,-0.229736,0.917847,6.896972,-5.981445,-3.662109
10861,0.380859,-0.242554,0.943848,1.037598,-4.760742,-3.417969
10872,0.378662,-0.233643,0.948730,-5.065917,-2.136230,-2.807617
10883,0.381104,-0.218994,0.948120,-9.399414,0.793457,-2.136230
10894,0.385376,-0.203613,0.943848,-10.620116,2.929687,-1.708984
10906,0.388062,-0.193970,0.938721,-8.239746,3.662109,-1.647949
10917,0.386597,-0.199341,0.932861,1.953125,2.441406,-2.197266
10928,0.382568,-0.213623,0.927002,4.211426,2.258301,-2.319336
10939,0.380615,-0.224731,0.922119,3.112793,2.746582,-2.197266
10951,0.385864,-0.236206,0.912231,-0.305176,3.479004,-1.953125
10962,0.388672,-0.232910,0.909668,-4.760742,3.906250,-1.831055
10973,0.389038,-0.225220,0.908569,-8.911133,3.967285,-1.892090
10984,0.386719,-0.213623,0.908691,-11.718749,3.784179,-2.197266
10995,0.381836,-0.198853,0.906128,-12.756347,3.662109,-2.563476
11007,0.376465,-0.186157,0.898193,-8.544922,4.394531,-3.234863
11018,0.373047,-0.181885,0.886353,-4.516602,5.371093,-3.051758
11029,0.371948,-0.189697,0.872437,-1.220703,6.591796,-2.502441
11040,0.373413,-0.204712,0.857544,0.183105,7.568359,-1.892090
11052,0.387817,-0.224243,0.833740,0.183105,7.568359,-1.525879
11063,0.395142,-0.237549,0.830566,-0.183105,6.103515,-1.342773
11074,0.396240,-0.257568,0.835571,-1.220703,3.601074,-1.342773
11085,0.393555,-0.267944,0.844971,-4.211426,0.915527,-1.220703
11097,0.393066,-0.261353,0.854858,-9.094238,-1.159668,-0.671387
11108,0.396118,-0.245728,0.863770,-15.563964,-3.662109,0.854492
11119,0.399536,-0.228882,0.873291,-14.465331,-4.333496,1.403808
11130,0.400024,-0.212036,0.884644,-10.437011,-4.821777,1.708984
11142,0.399658,-0.198608,0.896118,-4.028320,-5.249023,1.770019
11153,0.401611,-0.202026,0.913940,3.112793,-5.737304,1.403808
11164,0.401733,-0.214600,0.920776,8.666992,-6.164550,0.793457
11175,0.400024,-0.228149,0.926270,11.230468,-6.530761,0.427246
11187,0.396484,-0.239990,0.931152,10.437011,-6.591796,0.427246
11198,0.389771,-0.248535,0.935791,6.713867,-6.103515,0.854492
11209,0.383301,-0.247925,0.939697,-5.676269,-2.990722,1.708984
11220,0.382446,-0.232788,0.939697,-10.498046,-0.976562,1.892090
11231,0.386963,-0.209473,0.935059,-11.657714,0.793457,1.831055
11243,0.396606,-0.177002,0.923584,-8.850098,1.892090,1.525879
11254,0.400024,-0.174438,0.919434,-3.662109,2.075195,1.098633
11265,0.399048,-0.183105,0.917725,1.708984,1.342773,0.610352
11276,0.395996,-0.199585,0.916748,5.493164,0.305176,-0.122070
11287,0.392212,-0.215332,0.916870,6.225585,-0.610352,-0.671387
11299,0.388672,-0.222046,0.918579,-1.708984,-0.793457,-0.427246
11310,0.387085,-0.217041,0.919922,-6.286621,-0.244141,0.000000
11321,0.386353,-0.205688,0.919067,-8.422852,0.183105,0.610352
11332,0.385498,-0.193237,0.917358,-7.629394,0.427246,0.915527
11344,0.385742,-0.179199,0.916138,-4.211426,0.366211,0.854492
11355,0.384644,-0.187012,0.915649,0.732422,0.061035,0.732422
11366,0.381226,-0.203857,0.916748,5.126953,-0.305176,0.732422
11377,0.377197,-0.221069,0.917969,6.713867,-0.366211,1.037598
11389,0.376221,-0.228027,0.917236,4.516602,0.305176,1.586914
11400,0.380737,-0.218994,0.914551,-6.530761,2.319336,2.197266
11411,0.389038,-0.197266,0.909546,-9.521484,2.441406,1.892090
11422,0.396240,-0.171997,0.903564,-8.605957,1.525879,1.098633
11433,0.399902,-0.152100,0.899292,-4.394531,-0.122070,-0.061035
11445,0.399658,-0.139648,0.898193,1.892090,-2.136230,-1.464844
11456,0.398315,-0.146851,0.900757,8.850098,-3.967285,-2.990722
11467,0.395508,-0.164429,0.905151,14.953612,-5.249023,-4.089355
11478,0.391602,-0.190430,0.911377,18.859863,-5.981445,-4.638672
11490,0.387451,-0.216553,0.920288,19.226074,-6.225585,-4.821777
11501,0.383667,-0.227173,0.930908,9.155273,-4.089355,-4.333496
11512,0.383057,-0.217285,0.940918,4.028320,-2.075195,-4.150391
11523,0.386719,-0.196655,0.947510,2.685547,-0.305176,-4.455566
11534,0.397583,-0.160400,0.951172,6.042480,0.366211,-5.310058
11546,0.397461,-0.154907,0.949951,13.916015,-0.427246,-6.469726
11557,0.391846,-0.157959,0.949707,25.024412,-2.319336,-7.873535
11568,0.383789,-0.166748,0.950928,37.780762,-4.333496,-9.399414
11580,0.375854,-0.182739,0.949829,50.170895,-5.798339,-11.230468
11591,0.369385,-0.206787,0.945435,67.871094,-6.835937,-15.319823
11602,0.366211,-0.239990,0.937988,70.129395,-5.798339,-16.174316
11613,0.360229,-0.275513,0.929932,67.443848,-2.929687,-15.686034
11625,0.347900,-0.294189,0.928101,62.622066,1.708984,-14.831542
11636,0.345215,-0.302124,0.914429,58.776852,6.774902,-14.038085
11647,0.360840,-0.302734,0.896118,57.739254,10.253905,-13.305663
11659,0.380981,-0.299194,0.877686,59.692379,10.925292,-13.061522
11670,0.399536,-0.284912,0.863159,63.537594,8.972168,-13.671874
11681,0.408447,-0.263062,0.854370,79.956055,-0.671387,-18.249512
11693,0.403931,-0.254395,0.848999,95.397942,-6.164550,-21.301268
11704,0.387329,-0.279175,0.846313,111.938469,-9.643555,-23.681639
11715,0.365479,-0.333252,0.846313,124.206535,-9.460449,-24.841307
11727,0.335327,-0.438354,0.841064,129.699707,-5.798339,-24.475096
11738,0.335938,-0.458130,0.831055,129.455566,-0.671387,-23.132322
11749,0.345215,-0.463013,0.814819,126.892082,3.601074,-21.850584
11761,0.359375,-0.457031,0.793335,125.061028,5.554199,-21.728514
11772,0.369141,-0.452026,0.772583,126.098625,4.638672,-22.949217
11783,0.367432,-0.462891,0.754150,137.207031,-1.953125,-26.916502
11794,0.357666,-0.488525,0.738037,143.066406,-4.699707,-29.052732
11806,0.345581,-0.518066,0.724976,146.850586,-6.042480,-30.822752
11817,0.332153,-0.551392,0.696533,149.108887,-6.347656,-32.165527
11829,0.331543,-0.557129,0.676636,151.794434,-6.103515,-33.630371
11840,0.331543,-0.567017,0.654907,156.921387,-6.164550,-35.766602
11851,0.330322,-0.582397,0.630371,165.344223,-7.080078,-38.330078
11863,0.328735,-0.592651,0.603516,188.659653,-11.840819,-44.555660
11874,0.325073,-0.605103,0.576660,201.904282,-15.563964,-48.583981
11885,0.315918,-0.634521,0.549561,214.050278,-19.104004,-52.612301
11897,0.302979,-0.674927,0.522217,223.144516,-22.033689,-56.274410
11908,0.279297,-0.730957,0.469238,229.980453,-24.841307,-59.631344
11920,0.258789,-0.772339,0.442139,236.755356,-27.282713,-62.255856
11931,0.233765,-0.823242,0.412842,243.041977,-28.015135,-63.720699
11942,0.212280,-0.866943,0.383301,246.398911,-26.062010,-63.964840
11954,0.201782,-0.897217,0.349243,240.722641,-17.822266,-63.110348
11965,0.205200,-0.906738,0.306641,235.351547,-15.869140,-63.293453
11976,0.214722,-0.902710,0.260498,233.581528,-17.089844,-63.720699
11988,0.188110,-0.924316,0.179321,236.694321,-19.775391,-64.086914
11999,0.157959,-0.959473,0.143555,241.088852,-21.118162,-64.208984
12010,0.143433,-0.973145,0.106567,242.004379,-19.897461,-64.147949
12022,0.146118,-0.953247,0.066040,239.257797,-17.456055,-64.147949
12033,0.151855,-0.929199,0.020264,238.220200,-16.357422,-64.575195
12045,0.152100,-0.916748,-0.027588,251.220688,-20.874022,-68.664551
12056,0.143311,-0.909424,-0.074219,260.681152,-24.230955,-71.533203
12067,0.124878,-0.910522,-0.121094,268.737793,-26.855467,-74.035645
12079,0.078613,-0.968140,-0.219116,273.742676,-28.259275,-75.378418
12090,0.057861,-1.005249,-0.255371,273.925781,-28.076170,-74.523926
12101,0.041016,-1.010742,-0.288818,268.737793,-26.794432,-71.655273
12113,0.034912,-0.989014,-0.331299,258.361816,-25.146482,-68.664551
12124,0.043945,-0.938599,-0.377686,245.422348,-23.437498,-66.894531
12136,0.050049,-0.871582,-0.420044,240.051254,-26.062010,-67.138672
12147,0.038086,-0.822998,-0.457153,255.004868,-28.503416,-69.763184
12158,0.014160,-0.808105,-0.493652,272.949219,-28.686522,-73.242188
12170,-0.016479,-0.812012,-0.564453,283.874512,-26.855467,-76.293945
12181,-0.019897,-0.791382,-0.605103,286.865234,-25.024412,-78.491211
12192,-0.031372,-0.780273,-0.646118,288.879395,-24.047850,-80.017090
12204,-0.056885,-0.796631,-0.682495,292.663574,-22.460936,-80.566399
12215,-0.081543,-0.815552,-0.708862,284.362793,-12.512206,-76.721191
12226,-0.090088,-0.825806,-0.729736,263.061523,-5.371093,-69.641113
12238,-0.087158,-0.828857,-0.755859,231.506332,0.488281,-58.837887
12249,-0.085571,-0.821533,-0.786743,195.068344,3.662109,-46.447750
12261,-0.094116,-0.767944,-0.834595,158.569336,4.882812,-34.606934
12272,-0.095581,-0.729614,-0.852539,124.877922,5.432128,-23.986814
12283,-0.089478,-0.687866,-0.869751,96.496574,5.493164,-14.587401
12295,-0.088379,-0.654175,-0.884277,75.317383,4.394531,-6.103515
12306,-0.100098,-0.634033,-0.894165,49.133297,0.976562,6.042480
12317,-0.114258,-0.616455,-0.899292,38.574219,0.915527,8.789062
12328,-0.122803,-0.601074,-0.901611,27.832029,1.953125,10.437011
12340,-0.123413,-0.599854,-0.903687,16.723633,3.479004,12.268065
12351,-0.099121,-0.619629,-0.909424,4.333496,4.638672,15.197753
12362,-0.085205,-0.615234,-0.911255,-9.521484,4.516602,18.920898
12374,-0.084473,-0.624146,-0.912354,-23.193357,3.051758,22.583006
12385,-0.089111,-0.655029,-0.911011,-35.888672,1.281738,26.062010
12396,-0.090454,-0.698242,-0.904663,-72.937012,0.305176,34.545898
12408,-0.092651,-0.741943,-0.894165,-102.478020,1.647949,40.466305
12419,-0.099365,-0.777100,-0.882324,-138.244629,4.882812,47.912594
12430,-0.107056,-0.803467,-0.869751,-176.452621,9.643555,56.640621
12442,-0.108154,-0.828003,-0.843872,-213.561996,15.319823,65.368652
12453,-0.088135,-0.821167,-0.832397,-248.352036,20.690916,72.570801
12465,-0.050415,-0.805786,-0.820923,-279.113770,24.291990,77.331543
12476,-0.010742,-0.792358,-0.800781,-301.452637,24.230955,79.956055
12487,0.012817,-0.787354,-0.765259,-308.410645,12.268065,80.383293
12499,0.020142,-0.790161,-0.711670,-298.278809,4.821777,78.247070
12510,0.011353,-0.817139,-0.643188,-286.315918,0.671387,75.561523
12521,-0.001587,-0.909424,-0.503418,-277.465820,1.403808,74.218750
12533,0.005249,-0.961914,-0.447388,-275.451660,5.798339,75.134277
12544,0.020630,-0.992554,-0.404663,-281.982422,11.657714,77.575684
12555,0.047852,-0.994873,-0.370483,-295.532227,16.967773,80.322258
12567,0.076416,-0.984619,-0.336182,-309.814453,20.080564,83.618156
12578,0.093140,-0.962646,-0.294067,-315.856934,21.301268,92.895500
12589,0.098267,-0.936646,-0.242310,-306.640625,21.240232,95.642082
12601,0.105713,-0.915283,-0.184570,-294.555664,20.812986,94.726555
12612,0.152588,-0.921265,-0.072144,-285.461426,19.775391,90.881340
12623,0.177368,-0.929321,-0.024536,-283.325195,18.188477,86.547844
12635,0.194946,-0.901611,0.019531,-287.475586,15.991210,83.374016
12646,0.203857,-0.857300,0.063965,-292.236328,13.183593,81.542961
12657,0.203125,-0.821289,0.111694,-290.405273,10.681151,80.078125
12669,0.195679,-0.803833,0.163696,-262.268066,11.291503,73.242188
12680,0.197754,-0.806519,0.209717,-247.924789,14.648437,68.664551
12691,0.218872,-0.818481,0.245972,-238.952621,17.150879,65.490723
12703,0.274658,-0.825806,0.306030,-234.069809,16.967773,63.903805
12714,0.294189,-0.808594,0.341919,-231.201157,13.793944,62.316891
12726,0.293945,-0.798096,0.384033,-227.539047,9.094238,60.241695
12737,0.280884,-0.791260,0.427246,-222.656235,5.920410,58.837887
12748,0.272827,-0.780029,0.467163,-219.360336,5.920410,59.082027
12759,0.275757,-0.767334,0.498657,-218.994125,12.451171,64.025879
12771,0.288208,-0.750977,0.523071,-222.656235,16.052246,66.345215
12782,0.306641,-0.723755,0.540771,-228.942856,18.310547,67.993164
12794,0.354248,-0.622559,0.570557,-234.558090,17.761230,68.847656
12805,0.379761,-0.549561,0.584351,-236.877426,14.221190,68.237305
12816,0.401367,-0.472412,0.605469,-234.741196,7.690429,64.636230
12828,0.407104,-0.423950,0.638672,-225.524887,-1.281738,58.105465
12839,0.391235,-0.418335,0.679565,-209.228500,-9.460449,50.842281
12850,0.366333,-0.441284,0.720581,-183.715805,-11.596679,43.090816
12862,0.349609,-0.477783,0.752197,-185.729965,-6.286621,44.372555
12873,0.351807,-0.512329,0.764282,-198.669418,-0.549316,48.461910
12884,0.409302,-0.426147,0.746582,-219.177231,1.953125,52.795406
12896,0.432739,-0.299561,0.741577,-237.182602,-1.098633,54.992672
12907,0.439087,-0.173096,0.751099,-241.271957,-9.277344,53.710934
12918,0.432495,-0.082275,0.772461,-227.539047,-20.263670,48.645016
12930,0.417236,-0.029907,0.805420,-201.293930,-30.944822,39.733887
12941,0.397461,-0.014648,0.846191,-139.892578,-41.137691,20.874022
12952,0.380859,-0.022827,0.880981,-112.853996,-39.367676,16.906738
12964,0.373901,-0.026123,0.907349,-91.125481,-35.827637,15.930175
12975,0.381226,-0.027344,0.954956,-74.340820,-33.386230,15.075683
12986,0.379883,-0.035278,0.976685,-61.706539,-32.531738,13.061522
12998,0.367310,-0.046265,0.999268,-51.879879,-32.470703,10.559081
13009,0.353271,-0.051147,1.017090,-44.006344,-31.249998,8.361816
13020,0.346069,-0.043701,1.029541,-38.452148,-27.954100,6.347656
13031,0.344727,-0.029053,1.037598,-28.503416,-16.967773,2.624511
13043,0.342285,-0.015015,1.043335,-20.385740,-10.314940,1.403808
13054,0.334106,-0.015869,1.047607,-10.498046,-2.929687,0.549316
13065,0.338989,-0.043213,1.042480,-1.953125,4.638672,-0.305176
13076,0.357056,-0.034058,1.031250,3.479004,10.803222,-1.525879
13088,0.378540,-0.006104,1.013550,8.239746,14.099120,-3.479004
13099,0.396851,0.029053,0.993286,16.113281,13.793944,-6.591796
13110,0.409180,0.063232,0.975098,29.968260,9.643555,-10.681151
13121,0.410034,0.088013,0.962158,81.970207,-5.981445,-20.507811
13133,0.393188,0.090088,0.957397,118.835442,-12.145995,-25.695799
13144,0.363770,0.051392,0.958252,157.775879,-14.099120,-30.517576
13155,0.335815,-0.031738,0.956787,191.772446,-12.207030,-35.461426
13167,0.322876,-0.220825,0.928345,214.538559,-8.483887,-40.466305
13178,0.338623,-0.283936,0.900757,224.182114,-5.920410,-43.945309
13189,0.358765,-0.311768,0.872314,224.487289,-6.958007,-45.593258
13201,0.370239,-0.317749,0.847412,222.473129,-11.901855,-46.691891
13212,0.363159,-0.327515,0.825928,232.116684,-26.062010,-49.987789
13224,0.340820,-0.351562,0.808594,244.079575,-29.846189,-52.001949
13235,0.310425,-0.400635,0.793701,257.019043,-29.052732,-52.673336
13246,0.263672,-0.536011,0.759644,266.906738,-23.864744,-51.574703
13258,0.252563,-0.623047,0.736572,270.263672,-16.113281,-49.438473
13269,0.255005,-0.687500,0.703247,264.099121,-8.056641,-46.813961
13281,0.272827,-0.701660,0.661377,248.779282,-2.868652,-45.104977
13292,0.293457,-0.673706,0.614380,231.445297,-2.990722,-45.288082
13303,0.299683,-0.625366,0.567749,229.614243,-19.531250,-52.978512
13315,0.281982,-0.606445,0.525269,250.793442,-29.968260,-59.631344
13326,0.243530,-0.655884,0.488281,275.268555,-36.499023,-64.636230
13337,0.144409,-0.940430,0.437622,287.475586,-36.071777,-65.246582
13349,0.126343,-1.056396,0.418335,276.123047,-28.320311,-60.302731
13360,0.142212,-1.071045,0.391479,242.736801,-17.272949,-50.598141
13372,0.186035,-0.975708,0.349365,202.209457,-9.338379,-40.039062
13383,0.229370,-0.831787,0.298096,171.447739,-20.385740,-37.109375
13394,0.234985,-0.732300,0.251587,195.678696,-33.874512,-45.532223
13406,0.191040,-0.737671,0.218140,233.459457,-42.907711,-54.199215
13417,0.127441,-0.841431,0.197510,263.610840,-42.663570,-57.373043
13428,0.066650,-1.090820,0.165894,268.920898,-33.874512,-52.978512
13440,0.085205,-1.097168,0.143188,248.596176,-22.216795,-44.128414
13451,0.115112,-1.036987,0.106323,217.895493,-13.488769,-35.949707
13463,0.148071,-0.920776,0.055664,194.274887,-10.375976,-32.348633
13474,0.169434,-0.810303,0.000122,207.275375,-22.644041,-42.175289
13485,0.161255,-0.780762,-0.051880,240.539536,-32.287598,-50.231930
13497,0.121216,-0.842407,-0.093018,273.986816,-37.353516,-54.687496
13508,0.018066,-1.106567,-0.141235,289.062500,-34.057617,-52.795406
13519,0.007446,-1.158813,-0.159546,276.000977,-23.986814,-45.349117
13531,0.032471,-1.105225,-0.190674,241.149887,-12.817382,-36.132812
13542,0.079834,-0.949951,-0.240845,201.782211,-6.469726,-30.822752
13554,0.111572,-0.783325,-0.299316,180.053696,-8.422852,-33.142090
13565,0.099243,-0.691650,-0.350586,231.079086,-23.498533,-54.565426
13576,0.053223,-0.707275,-0.386719,278.625488,-25.390623,-64.880371
13588,0.001587,-0.809814,-0.411499,306.213379,-19.531250,-69.274902
13599,-0.043091,-0.971069,-0.425781,299.926758,-7.568359,-67.260742
13610,-0.041992,-0.966187,-0.443115,268.188477,6.469726,-61.584469
13622,-0.035400,-0.929565,-0.481201,228.271469,18.676758,-55.297848
13633,-0.011230,-0.865845,-0.533447,194.213852,27.038572,-49.926754
13645,0.020020,-0.794189,-0.589233,174.377426,29.541014,-45.654293
13656,0.024902,-0.753662,-0.637817,178.283676,18.066406,-42.541500
13667,0.000122,-0.753174,-0.673218,183.471664,11.169433,-43.823238
13679,-0.031494,-0.779541,-0.696533,177.307114,6.591796,-44.311520
13690,-0.072510,-0.839600,-0.732544,158.325195,4.089355,-42.541500
13702,-0.085693,-0.845215,-0.747559,130.981445,3.112793,-38.391113
13713,-0.101074,-0.843384,-0.764648,100.585930,3.540039,-32.226562
13724,-0.111694,-0.827637,-0.786865,70.861816,5.432128,-24.597166
13736,-0.104980,-0.796509,-0.810303,23.193357,8.422852,-9.277344
13747,-0.089966,-0.768555,-0.830688,8.789062,6.896972,-3.234863
13758,-0.086060,-0.761597,-0.841187,-0.061035,4.211426,1.403808
13770,-0.096436,-0.774536,-0.836792,-8.361816,2.136230,5.004883
13781,-0.118042,-0.807739,-0.805786,-20.935057,1.953125,8.483887
13792,-0.106323,-0.785278,-0.794922,-37.292480,3.234863,12.573241
13803,-0.086792,-0.749390,-0.791748,-51.757809,4.455566,16.967773
13815,-0.075684,-0.724243,-0.786865,-58.715816,4.333496,20.385740
13826,-0.071533,-0.716064,-0.772827,-54.016109,1.342773,21.179197
13838,-0.067505,-0.730957,-0.755249,-52.734371,-0.061035,20.141600
13849,-0.062500,-0.771606,-0.737793,-57.312008,-0.976562,20.874022
13860,-0.063477,-0.842773,-0.697510,-68.542480,-1.342773,24.353025
13872,-0.069580,-0.847168,-0.678955,-83.923332,-0.915527,28.869627
13883,-0.073730,-0.854492,-0.662598,-99.426262,0.915527,32.897949
13894,-0.069092,-0.868164,-0.645874,-113.708488,4.272461,36.376953
13906,-0.060059,-0.890137,-0.628906,-127.990715,8.483887,40.344234
13917,-0.055786,-0.927490,-0.614380,-160.339355,16.601562,53.100582
13928,-0.054565,-0.963745,-0.599854,-181.335434,20.385740,60.607906
13940,-0.052124,-0.980103,-0.582275,-206.115707,23.925779,66.833496
13951,-0.030884,-0.961182,-0.553955,-230.712875,26.367186,70.739746
13963,-0.005859,-0.927246,-0.539917,-250.305161,26.733397,72.326660
13974,0.016235,-0.897827,-0.514893,-260.742188,24.047850,72.814941
13985,0.018188,-0.895996,-0.475586,-259.216309,19.348145,73.852539
13997,0.011963,-0.909302,-0.427734,-248.291000,15.136718,74.645996
14008,0.018066,-0.927246,-0.377319,-228.149399,10.864257,68.725586
14020,0.036987,-0.951660,-0.328003,-227.844223,9.216309,63.659664
14031,0.053711,-0.979858,-0.276611,-232.177719,8.300781,60.424801
14042,0.057739,-1.024780,-0.183838,-238.952621,9.521484,59.814449
14054,0.069824,-1.012329,-0.146240,-248.168930,12.756347,60.974117
14065,0.092407,-0.972778,-0.113403,-258.300781,16.235352,62.011715
14077,0.117920,-0.921631,-0.082275,-264.343262,18.066406,61.767574
14088,0.144165,-0.873779,-0.048462,-246.643051,15.075683,57.189938
14099,0.164551,-0.844238,-0.009888,-225.646957,10.742187,53.527828
14111,0.171753,-0.828979,0.030640,-202.392563,5.004883,48.522945
14122,0.172974,-0.822144,0.069946,-179.870590,-1.708984,41.625973
14133,0.173096,-0.862427,0.144531,-160.095215,-8.300781,33.813477
14145,0.171021,-0.900024,0.178833,-146.240234,-13.427733,27.282713
14156,0.172729,-0.932251,0.211304,-141.540527,-16.479492,23.193357
14168,0.175537,-0.951416,0.244751,-145.629883,-18.066406,21.606443
14179,0.172363,-0.960205,0.279785,-166.503891,-16.906738,23.864744
14190,0.165161,-0.963745,0.313843,-180.541977,-12.756347,27.099607
14202,0.163940,-0.950562,0.346436,-196.655258,-6.713867,31.066893
14213,0.181885,-0.880737,0.407715,-211.120590,-0.122070,35.583496
14224,0.189941,-0.840088,0.433472,-219.787582,5.798339,39.978027
14236,0.199829,-0.810303,0.457275,-222.412094,10.437011,43.518063
14247,0.217651,-0.784912,0.480713,-222.351059,13.366698,45.593258
14258,0.238525,-0.762329,0.504517,-223.571762,13.366698,46.020504
14270,0.251587,-0.744995,0.526611,-231.750473,4.516602,44.860836
14281,0.255249,-0.719604,0.547729,-236.755356,-1.403808,44.616695
14293,0.254639,-0.678223,0.571533,-239.257797,-6.103515,44.921871
14304,0.234253,-0.623413,0.623291,-238.342270,-7.995605,46.386715
14315,0.228760,-0.585327,0.648682,-236.389145,-5.981445,49.072262
14327,0.227905,-0.535278,0.676514,-235.473618,-1.464844,51.940914
14338,0.231567,-0.505493,0.701904,-234.924301,3.479004,52.978512
14349,0.246094,-0.477295,0.719116,-236.206039,7.934570,50.842281
14361,0.270630,-0.423462,0.730957,-247.009262,10.559081,40.039062
14372,0.298584,-0.343140,0.739624,-245.666489,6.896972,35.156250
14383,0.321289,-0.255127,0.754883,-232.299789,-0.122070,31.433104
14395,0.320801,-0.190430,0.810547,-209.350571,-8.605957,28.137205
14406,0.310547,-0.183838,0.842529,-183.898911,-15.869140,24.963377
14418,0.299683,-0.166992,0.876953,-160.949692,-20.690916,22.521971
14429,0.290649,-0.143921,0.912964,-140.441895,-22.583006,20.874022
14440,0.286987,-0.118286,0.946045,-101.074211,-19.226074,16.296387
14452,0.289673,-0.095459,0.972778,-82.397453,-16.235352,12.084960
14463,0.294312,-0.088745,0.993286,-65.551758,-13.549804,7.324218
14474,0.297363,-0.102905,1.009399,-52.124020,-11.718749,3.356933
14486,0.291016,-0.154175,1.029907,-44.433590,-10.070800,1.220703
14497,0.288818,-0.149414,1.034302,-43.090816,-8.117676,0.305176
14508,0.288696,-0.133789,1.035889,-44.433590,-6.469726,-0.366211
14520,0.285522,-0.124390,1.039551,-43.090816,-5.493164,-1.403808
14531,0.275146,-0.128296,1.046265,-29.602049,-2.258301,-3.173828
14542,0.263916,-0.144287,1.050537,-22.827147,1.708984,-3.234863
14553,0.260742,-0.163452,1.048828,-18.859863,6.408691,-2.624511
14565,0.267212,-0.169434,1.040771,-17.517090,10.192870,-1.525879
14576,0.286377,-0.147461,1.015503,-16.662598,11.962890,-0.488281
14587,0.294189,-0.134033,0.999512,-14.587401,11.779784,0.000000
14609,0.304688,-0.109375,0.972168,-7.019042,8.483887,-0.732422
14620,0.308228,-0.106689,0.962524,-1.220703,5.920410,-1.037598
14632,0.306152,-0.111816,0.953979,12.451171,0.305176,-1.647949
14643,0.296997,-0.125244,0.949219,16.906738,-1.586914,-1.953125
14654,0.285278,-0.150513,0.951172,17.150879,-1.770019,-2.197266
14665,0.277100,-0.178589,0.954590,12.390136,0.061035,-2.136230
14676,0.283447,-0.172852,0.947876,4.333496,2.624511,-1.464844
14688,0.293823,-0.143555,0.941406,-3.112793,4.150391,-0.671387
14699,0.302124,-0.120361,0.939575,-5.920410,3.723144,-0.671387
14710,0.304688,-0.113159,0.941284,-3.356933,1.953125,-1.525879
14721,0.300537,-0.113281,0.943481,2.441406,-0.488281,-2.441406
14733,0.293335,-0.120239,0.948853,15.197753,-5.126953,-3.234863
14744,0.280518,-0.146729,0.957153,18.371582,-5.493164,-3.356933
14755,0.264160,-0.181885,0.965332,15.747069,-3.356933,-3.417969
14766,0.254150,-0.203247,0.969360,7.995605,0.366211,-3.051758
14778,0.261719,-0.181885,0.959473,-0.549316,3.723144,-2.502441
14789,0.268066,-0.162354,0.953369,-5.310058,5.859375,-2.319336
14800,0.272095,-0.151489,0.948486,-5.126953,6.958007,-2.624511
14811,0.275635,-0.150146,0.943604,-1.647949,7.263183,-2.868652
14822,0.277710,-0.160278,0.938110,3.601074,6.774902,-2.685547
14834,0.276978,-0.179810,0.935059,12.145995,5.004883,-1.647949
14845,0.275757,-0.197144,0.937012,11.413573,4.760742,-1.037598
14856,0.276978,-0.203125,0.937988,7.446289,5.004883,-0.488281
14867,0.287476,-0.182495,0.931885,2.746582,5.187988,-0.183105
14879,0.292725,-0.171265,0.929077,-0.427246,4.882812,-0.427246
14890,0.295898,-0.163330,0.927002,-1.464844,4.089355,-0.854492
14901,0.296997,-0.158691,0.926392,-0.488281,2.807617,-1.220703
14912,0.295410,-0.159058,0.928955,2.319336,1.342773,-1.403808
14924,0.291382,-0.166626,0.932983,9.155273,-0.183105,-1.403808
14935,0.289307,-0.176147,0.936157,9.826660,-0.244141,-1.464844
14946,0.289673,-0.187500,0.938843,8.300781,-0.244141,-1.464844
14957,0.289673,-0.202881,0.941406,4.394531,-0.183105,-1.281738
14969,0.295044,-0.193481,0.943970,-1.281738,0.183105,-0.854492
14980,0.302734,-0.166382,0.941284,-6.225585,0.671387,-0.427246
14991,0.309692,-0.142334,0.938110,-7.507324,0.732422,-0.427246
15002,0.313232,-0.130981,0.935059,-4.211426,0.244141,-0.671387
15014,0.312256,-0.133179,0.933350,1.953125,-0.854492,-1.098633
15025,0.307129,-0.147217,0.934937,13.305663,-2.990722,-2.563476
15036,0.301270,-0.173218,0.938354,14.831542,-2.868652,-3.112793
15047,0.297241,-0.201172,0.942383,12.023925,-1.770019,-2.990722
15059,0.298950,-0.216431,0.948242,6.164550,-0.366211,-2.197266
15070,0.303955,-0.206787,0.947754,-0.061035,0.610352,-1.342773
15081,0.307251,-0.191162,0.947510,-4.516602,0.915527,-0.793457
15092,0.307983,-0.174072,0.948364,-6.164550,0.488281,-0.427246
15104,0.307129,-0.162964,0.948730,-4.821777,-0.427246,-0.366211
15115,0.303833,-0.165771,0.949219,-1.037598,-1.525879,-0.549316
15126,0.297485,-0.177368,0.951538,5.615234,-2.563476,-0.427246
15137,0.291992,-0.187500,0.955811,5.126953,-1.647949,-0.061035
15149,0.290405,-0.191162,0.959106,2.502441,-0.183105,0.305176
15160,0.293945,-0.181641,0.956421,-0.549316,0.976562,0.488281
15171,0.295288,-0.174683,0.953003,-2.380371,1.281738,0.488281
15182,0.296143,-0.169678,0.950317,-2.502441,0.915527,0.305176
15194,0.296387,-0.167236,0.949951,-1.098633,-0.122070,0.061035
15205,0.294189,-0.172607,0.952881,1.525879,-1.342773,-0.183105
15216,0.288696,-0.185791,0.957153,4.943848,-2.136230,0.061035
15227,0.282959,-0.193604,0.962280,3.173828,-0.976562,0.610352
15239,0.281616,-0.187866,0.968018,0.366211,0.610352,1.159668
15250,0.290527,-0.164673,0.972900,-1.953125,1.953125,1.342773
15261,0.293823,-0.157349,0.972534,-3.173828,2.746582,1.342773
15272,0.293945,-0.154663,0.970093,-3.417969,2.990722,1.281738
15284,0.292847,-0.154419,0.965942,-2.990722,2.807617,1.037598
15295,0.292358,-0.152832,0.961426,-2.136230,2.197266,0.549316
15306,0.291992,-0.152344,0.959106,1.342773,0.366211,-0.610352
15317,0.289673,-0.159424,0.958252,3.173828,-0.122070,-0.732422
15329,0.285278,-0.172119,0.958740,3.479004,0.244141,-0.610352
15340,0.282104,-0.184204,0.959839,1.647949,1.647949,-0.366211
15351,0.282349,-0.193481,0.956055,-1.892090,3.662109,-0.122070
15362,0.287842,-0.184082,0.950684,-6.103515,5.676269,0.061035
15374,0.296265,-0.168335,0.941895,-9.460449,7.080078,0.061035
15385,0.303955,-0.153687,0.932739,-10.375976,7.141113,-0.122070
15396,0.307861,-0.144165,0.928223,-8.239746,5.676269,-0.488281
15407,0.307373,-0.143188,0.926636,2.380371,0.732422,-1.525879
15419,0.304077,-0.151733,0.926758,7.446289,-1.159668,-2.014160
15430,0.299805,-0.168091,0.928589,9.887695,-2.197266,-2.258301
15441,0.294800,-0.200195,0.935547,8.789062,-2.380371,-2.136230
15452,0.292847,-0.200928,0.938965,4.150391,-1.770019,-1.831055
15464,0.293335,-0.189697,0.941650,-2.014160,-0.427246,-1.525879
15475,0.297485,-0.171387,0.941040,-7.507324,1.220703,-1.403808
15486,0.303833,-0.151855,0.937134,-10.437011,2.563476,-1.220703
15497,0.309204,-0.138428,0.933228,-5.859375,1.953125,-1.342773
15509,0.310669,-0.134766,0.930664,-0.366211,-0.061035,-2.075195
15520,0.308716,-0.141602,0.928589,4.943848,-2.441406,-3.051758
15531,0.305298,-0.156006,0.926758,8.300781,-4.455566,-3.906250
15542,0.292358,-0.190552,0.927246,8.483887,-5.554199,-4.333496
15554,0.289795,-0.196167,0.925171,5.249023,-5.554199,-4.333496
15565,0.291382,-0.188965,0.920532,0.061035,-4.699707,-4.211426
15576,0.292969,-0.174316,0.915894,-4.638672,-3.662109,-3.967285
15587,0.294189,-0.158936,0.915283,-6.835937,-3.112793,-3.479004
15599,0.294556,-0.150879,0.918213,-1.281738,-3.723144,-2.746582
15610,0.293701,-0.152832,0.922119,5.676269,-4.638672,-2.624511
15621,0.293945,-0.160645,0.931396,11.474608,-5.554199,-2.746582
15632,0.301514,-0.186890,0.956543,13.549804,-5.676269,-2.990722
15644,0.302002,-0.199097,0.962036,12.756347,-5.065917,-3.234863
15655,0.298828,-0.209473,0.964966,10.253905,-4.638672,-3.295898
15666,0.293457,-0.213257,0.968994,7.019042,-4.516602,-2.929687
15677,0.289917,-0.207642,0.974609,4.089355,-4.028320,-2.197266
15689,0.289673,-0.195923,0.978760,2.441406,-2.807617,-1.464844
15700,0.292358,-0.184204,0.980957,2.136230,1.098633,-0.549316
15711,0.295288,-0.177979,0.979736,3.356933,2.685547,-0.366211
15722,0.297119,-0.177856,0.974854,4.943848,3.540039,-0.244141
15733,0.300049,-0.183960,0.965698,6.042480,3.723144,-0.122070
15745,0.300903,-0.184937,0.965454,6.469726,3.662109,0.000000
15756,0.300903,-0.182251,0.966431,6.408691,3.601074,0.061035
15767,0.299683,-0.175537,0.968994,6.652832,3.784179,0.183105
15778,0.296631,-0.166626,0.971924,7.995605,4.455566,0.427246
15789,0.294434,-0.156982,0.971802,15.319823,7.385253,0.793457
15801,0.295898,-0.145142,0.967285,21.423338,8.789062,0.305176
15812,0.300537,-0.133057,0.959351,29.846189,9.216309,-0.610352
15823,0.306519,-0.125610,0.949585,40.649410,8.361816,-2.258301
15834,0.310059,-0.132812,0.943115,53.100582,6.530761,-4.699707
15846,0.306152,-0.140503,0.943237,66.101074,4.638672,-7.629394
15857,0.302490,-0.153320,0.941895,79.284668,3.540039,-10.559081
15868,0.301025,-0.169800,0.938965,92.468254,3.295898,-13.183593
15879,0.300537,-0.183350,0.933838,105.773918,3.540039,-15.441894
15891,0.300659,-0.193237,0.924927,134.887695,2.990722,-20.507811
15902,0.304077,-0.201172,0.909546,151.672363,0.793457,-24.414061
15913,0.310547,-0.203857,0.886719,171.447739,-3.662109,-29.357908
15925,0.314697,-0.236206,0.838379,195.251450,-10.070800,-34.667969
15936,0.306274,-0.285034,0.815430,221.679672,-16.479492,-39.794922
15947,0.291992,-0.344116,0.795410,246.765121,-21.362303,-44.433590
15959,0.273315,-0.409790,0.776489,266.601562,-24.230955,-48.461910
15970,0.257568,-0.466064,0.751587,279.113770,-25.085447,-52.185055
15982,0.249023,-0.510254,0.719116,292.785645,-25.817869,-59.143063
15993,0.243042,-0.553833,0.682861,301.574707,-26.672361,-61.828609
16004,0.229248,-0.613647,0.646729,310.668945,-26.672361,-63.781734
16016,0.172974,-0.798828,0.580688,314.025879,-23.986814,-64.270020
16027,0.149780,-0.888794,0.545532,306.457520,-18.005371,-62.622066
16039,0.144043,-0.942749,0.507324,287.658691,-9.765625,-59.020992
16050,0.153687,-0.952515,0.466675,262.390137,-2.258301,-54.260250
16061,0.169800,-0.927368,0.424438,221.618637,2.380371,-47.241207
16073,0.178711,-0.901611,0.382202,215.332016,0.061035,-46.020504
16084,0.171753,-0.906372,0.343140,215.270981,-2.502441,-45.104977
16095,0.153931,-0.928711,0.306885,215.332016,-3.845215,-44.189449
16107,0.130737,-0.958374,0.242065,213.134750,-4.333496,-43.212887
16118,0.125488,-0.968506,0.211914,208.984360,-4.577637,-41.931149
16129,0.117310,-0.972534,0.184937,204.101547,-4.760742,-40.588375
16141,0.108643,-0.972412,0.159180,199.462875,-4.516602,-39.978027
16152,0.110352,-0.960083,0.130371,191.528305,-3.967285,-42.663570
16163,0.120728,-0.928589,0.099121,191.467270,-6.286621,-45.898434
16175,0.122192,-0.907593,0.066406,196.350082,-9.582520,-49.438473
16186,0.109253,-0.914917,0.029785,203.308090,-11.840819,-52.185055
16197,0.073853,-0.953247,-0.041748,209.228500,-13.000487,-53.527828
16209,0.055908,-0.980591,-0.070557,212.341293,-13.061522,-53.222652
16220,0.045288,-0.991333,-0.096436,210.754379,-11.535644,-51.696774
16231,0.041870,-0.975830,-0.119629,204.711899,-9.033203,-49.804684
16243,0.036499,-0.945557,-0.139648,195.922836,-5.737304,-49.804684
16254,0.028931,-0.893677,-0.170166,201.416000,-5.249023,-54.931637
16265,0.028687,-0.822510,-0.219849,216.491684,-5.554199,-64.514160
16277,0.028931,-0.771973,-0.284180,239.379868,-8.056641,-76.416016
16288,-0.013062,-0.811768,-0.402710,262.451172,-12.329101,-86.914055
16300,-0.049805,-0.868164,-0.445557,276.367188,-16.052246,-93.444817
16311,-0.081177,-0.913574,-0.482544,276.977539,-17.578125,-95.581047
16322,-0.097412,-0.931885,-0.515137,265.991211,-16.601562,-93.994133
16334,-0.100830,-0.917725,-0.543701,229.186996,-12.023925,-84.045403
16345,-0.096802,-0.871216,-0.568970,215.026840,-11.047362,-79.956055
16356,-0.093628,-0.816528,-0.595093,207.763657,-10.925292,-77.819824
16368,-0.108887,-0.783447,-0.658936,206.787094,-11.413573,-76.293945
16379,-0.125122,-0.798828,-0.684814,209.045395,-12.207030,-74.035645
16391,-0.139282,-0.824341,-0.702881,209.533676,-12.756347,-70.983887
16402,-0.151733,-0.850830,-0.715210,204.101547,-12.451171,-66.833496
16413,-0.165527,-0.858521,-0.724121,189.270004,-10.925292,-60.363766
16425,-0.176392,-0.838257,-0.737549,134.094238,-4.089355,-43.029781
16436,-0.173828,-0.805908,-0.757812,105.773918,-0.305176,-33.386230
16447,-0.161377,-0.774658,-0.779785,83.862297,1.953125,-23.071287
16459,-0.162842,-0.732788,-0.810913,67.810059,2.929687,-13.122558
16470,-0.168701,-0.723755,-0.820679,54.321285,3.479004,-4.760742
16481,-0.172241,-0.728638,-0.823853,39.611816,4.089355,2.014160
16492,-0.173828,-0.731201,-0.819336,21.545408,4.943848,7.812500
16504,-0.171875,-0.711060,-0.813232,0.610352,6.042480,12.329101
16515,-0.169922,-0.685913,-0.811035,-32.897949,8.972168,16.174316
16526,-0.169556,-0.679932,-0.813232,-41.442867,10.437011,16.601562
16538,-0.166138,-0.694580,-0.813477,-49.499508,11.535644,17.578125
16549,-0.168579,-0.756470,-0.796753,-61.584469,12.451171,20.385740
16561,-0.181152,-0.789917,-0.785522,-79.406738,14.038085,25.756834
16572,-0.190063,-0.821899,-0.778198,-102.111809,17.150879,33.569336
16583,-0.188477,-0.851807,-0.775024,-127.990715,21.179197,43.457027
16595,-0.180664,-0.867676,-0.770874,-156.005859,24.597166,54.077145
16606,-0.171265,-0.863525,-0.762451,-208.618149,26.062010,70.922852
16617,-0.155273,-0.848389,-0.748901,-224.975571,23.925779,75.439453
16629,-0.134644,-0.839233,-0.726562,-233.337387,20.080564,77.575684
16640,-0.121704,-0.854248,-0.644409,-236.206039,15.991210,77.880859
16652,-0.121338,-0.869263,-0.593262,-235.412582,13.366698,76.843262
16663,-0.114746,-0.894165,-0.544556,-232.116684,13.000487,75.256348
16674,-0.100708,-0.921631,-0.496460,-229.125961,14.282226,73.669434
16686,-0.085205,-0.948364,-0.450439,-233.032211,18.920898,72.204590
16697,-0.071045,-0.970703,-0.412109,-241.271957,21.484373,72.509766
16708,-0.050293,-0.967041,-0.378784,-249.694809,23.559568,73.547363
16720,-0.027710,-0.952637,-0.342529,-251.831039,25.146482,75.805664
16731,-0.010132,-0.949951,-0.257812,-246.032700,26.733397,78.735352
16743,-0.001587,-0.955078,-0.214355,-237.060532,28.625486,81.054680
16754,0.017212,-0.973022,-0.175781,-231.689438,30.334471,81.848137
16765,0.038574,-0.997803,-0.142944,-232.421860,31.005857,81.603996
16777,0.052002,-1.003540,-0.109253,-244.934067,27.221678,80.383293
16788,0.053345,-0.998169,-0.072144,-252.319321,25.268553,79.284668
16799,0.054199,-0.987061,-0.036011,-258.300781,24.963377,77.636719
16811,0.096436,-0.905396,0.034424,-260.559082,25.085447,75.134277
16822,0.129639,-0.873779,0.072266,-255.676254,23.803709,72.326660
16834,0.155518,-0.856201,0.113525,-243.286118,20.324705,69.519043
16845,0.164551,-0.852783,0.159668,-226.806625,14.831542,66.284180
16856,0.161011,-0.873413,0.207642,-210.998520,8.789062,62.316891
16868,0.153442,-0.904053,0.253662,-198.669418,3.051758,55.969234
16879,0.148438,-0.924438,0.294067,-205.932602,3.784179,56.030270
16890,0.153442,-0.930786,0.328857,-218.505844,5.676269,58.166500
16901,0.182495,-0.869141,0.387207,-232.055649,7.690429,61.218258
16913,0.197266,-0.804321,0.414673,-241.638168,8.972168,63.659664
16924,0.208984,-0.750366,0.447998,-242.370590,8.911133,64.147949
16935,0.215698,-0.721680,0.482300,-233.398422,8.300781,62.622066
16947,0.217163,-0.723145,0.516357,-219.543442,8.422852,60.729977
16958,0.216064,-0.747803,0.545532,-206.970200,13.122558,61.584469
16969,0.223999,-0.758301,0.567139,-214.538559,15.502929,63.903805
16981,0.241089,-0.737793,0.589966,-226.013168,16.052246,66.040039
16992,0.261230,-0.638428,0.643921,-235.717758,16.113281,67.321777
17003,0.262939,-0.582520,0.672729,-240.783676,16.967773,67.321777
17015,0.266235,-0.541138,0.699341,-240.966782,19.042969,66.040039
17026,0.276001,-0.505249,0.720581,-238.647446,22.338865,64.453125
17037,0.295776,-0.457764,0.737305,-236.083969,25.939939,63.232418
17049,0.323364,-0.393188,0.750000,-226.562485,27.160643,61.523434
17060,0.348267,-0.331909,0.761597,-213.806137,23.071287,60.668941
17072,0.359619,-0.297119,0.776245,-196.472153,17.517090,60.058590
17083,0.339722,-0.263916,0.813110,-179.260239,12.756347,58.959957
17094,0.330200,-0.252441,0.836426,-166.442856,10.437011,56.152340
17106,0.331787,-0.234375,0.854736,-159.973145,11.474608,52.185055
17117,0.344360,-0.189941,0.865723,-158.447266,15.624999,48.767086
17128,0.361816,-0.131592,0.873291,-157.714844,20.568846,46.691891
17140,0.382812,-0.073975,0.880493,-146.484375,26.733397,42.846676
17151,0.405151,-0.018066,0.890625,-134.277344,26.489256,39.367676
17163,0.422729,0.024902,0.904175,-117.431633,23.742674,34.484863
17174,0.442871,0.054321,0.924072,-97.717278,19.165039,28.320311
17185,0.449219,0.059448,0.931641,-77.819824,13.732909,21.362303
17196,0.453735,0.055664,0.941895,-58.898922,7.568359,14.221190
17208,0.453979,0.042236,0.952637,-40.771481,1.403808,7.507324
17219,0.448853,0.028076,0.960938,-23.742674,-3.845215,2.014160
17230,0.441040,0.014771,0.967041,4.089355,-9.765625,-4.638672
17241,0.433960,-0.004761,0.972412,14.770507,-10.742187,-6.652832
17253,0.426147,-0.032837,0.977783,22.521971,-10.620116,-8.056641
17264,0.405518,-0.102051,0.986084,26.123045,-9.277344,-8.544922
17275,0.401489,-0.117188,0.985840,24.902342,-6.896972,-8.361816
17286,0.402710,-0.109985,0.983398,20.629881,-4.211426,-8.239746
17298,0.405884,-0.088867,0.979370,16.967773,-1.953125,-8.605957
17309,0.409302,-0.067383,0.973511,16.967773,-0.610352,-9.399414
17320,0.411865,-0.053101,0.966919,31.188963,-0.976562,-12.634276
17331,0.411743,-0.045410,0.959717,43.701168,-2.075195,-14.831542
17343,0.409668,-0.048340,0.952271,57.434078,-3.295898,-17.517090
17354,0.407104,-0.067017,0.946289,69.946289,-4.455566,-20.690916
17365,0.402832,-0.123413,0.934448,79.772949,-5.676269,-23.620604
17377,0.399414,-0.148193,0.925537,86.608879,-7.263183,-25.756834
17388,0.397583,-0.157104,0.914062,91.125481,-9.094238,-27.404783
17399,0.399048,-0.149292,0.902710,95.214836,-11.352538,-29.418943
17411,0.399048,-0.146729,0.891602,115.234367,-18.127441,-34.423828
17422,0.393799,-0.157959,0.880737,131.713867,-21.423338,-36.987305
17433,0.383789,-0.178345,0.873657,148.742676,-23.864744,-39.855957
17445,0.371216,-0.210938,0.867676,164.123520,-25.329588,-42.602535
17456,0.347900,-0.307739,0.847290,176.452621,-25.939939,-44.982906
17467,0.340576,-0.348633,0.835205,184.814438,-26.489256,-47.180172
17479,0.333740,-0.385620,0.822876,190.307602,-27.038572,-49.133297
17490,0.326294,-0.423340,0.810181,194.885239,-27.465818,-50.292965
17502,0.320679,-0.453979,0.794067,202.270493,-26.855467,-50.170895
17513,0.321655,-0.462036,0.771973,206.787094,-27.526854,-50.659176
17524,0.326294,-0.458862,0.744629,215.759262,-30.395506,-52.551266
17536,0.314819,-0.479004,0.683228,230.224594,-35.217285,-55.725094
17547,0.290894,-0.527710,0.652588,248.596176,-40.588375,-59.753414
17558,0.258057,-0.610596,0.621948,266.357422,-44.555660,-63.415524
17570,0.222656,-0.705322,0.590820,277.709961,-45.654293,-65.246582
17581,0.197632,-0.776733,0.558594,279.785156,-44.067379,-64.697266
17593,0.186890,-0.815430,0.521606,268.310547,-38.208008,-58.349606
17604,0.186890,-0.835083,0.477905,264.831543,-37.170410,-54.077145
17615,0.187744,-0.842651,0.431641,265.991211,-38.574219,-50.598141
17627,0.165771,-0.849365,0.348145,271.545410,-41.381832,-49.072262
17638,0.156494,-0.853394,0.307739,280.334473,-44.372555,-50.048824
17649,0.145508,-0.869019,0.265015,291.198730,-46.936031,-52.368160
17661,0.128296,-0.912109,0.221924,302.490234,-48.339840,-53.955074
17672,0.108032,-0.975952,0.179932,311.218262,-47.424313,-53.710934
17683,0.094727,-1.037354,0.137207,307.739258,-38.513184,-45.776363
17695,0.089355,-1.084229,0.093384,293.090820,-33.569336,-39.367676
17706,0.095215,-1.094849,0.049683,273.681641,-30.578611,-33.447266
17718,0.114014,-1.033081,-0.031860,256.408691,-30.334471,-29.418943
17729,0.109131,-0.990234,-0.067749,246.826157,-31.982420,-28.137205
17740,0.095703,-0.946899,-0.105957,246.276840,-33.630371,-29.907225
17752,0.088501,-0.903076,-0.150391,252.868637,-34.423828,-34.545898
17763,0.087891,-0.886841,-0.199097,276.428223,-33.325195,-43.945309
17774,0.081299,-0.914307,-0.249634,285.705566,-31.188963,-43.640133
17786,0.062012,-0.957153,-0.294678,287.841797,-27.648924,-40.649410
17797,0.043457,-0.964355,-0.331909,283.569336,-23.437498,-38.391113
17809,0.059814,-0.858643,-0.415161,279.174805,-20.324705,-38.513184
17820,0.062988,-0.832886,-0.462769,280.090332,-19.348145,-39.733887
17831,0.048218,-0.830322,-0.495850,285.705566,-19.165039,-40.832516
17843,0.026367,-0.842407,-0.520264,290.466309,-17.211914,-41.442867
17854,0.016357,-0.841797,-0.550049,284.606934,-6.958007,-41.748043
17865,0.018677,-0.824341,-0.582275,279.418945,-2.319336,-39.672852
17877,0.020508,-0.808838,-0.612793,274.780273,1.586914,-34.667969
17888,0.011597,-0.779297,-0.669312,267.517090,5.920410,-27.832029
17899,0.004028,-0.753418,-0.693848,256.347656,10.314940,-20.629881
17911,-0.014771,-0.737549,-0.717773,243.103012,14.709472,-14.526366
17922,-0.032959,-0.720459,-0.739746,229.248032,19.958496,-11.413573
17934,-0.037598,-0.692139,-0.764893,211.791977,26.062010,-11.291503
17945,-0.034546,-0.666504,-0.795898,153.442383,34.179688,-8.728027
17956,-0.034058,-0.638672,-0.829224,123.168938,35.156250,-4.760742
17968,-0.036011,-0.608887,-0.863770,98.388664,34.484863,0.366211
17979,-0.044556,-0.580322,-0.913574,78.002930,32.409668,6.164550
17990,-0.055786,-0.565186,-0.923340,60.302731,29.418943,11.535644
18002,-0.061646,-0.553589,-0.932007,43.945309,26.184080,15.563964
18013,-0.057251,-0.541016,-0.942993,27.465818,22.827147,17.639160
18024,-0.046387,-0.525146,-0.954468,10.620116,18.554688,17.944336
18036,-0.040039,-0.510376,-0.961914,-17.333984,6.530761,15.686034
18047,-0.045776,-0.501587,-0.963501,-26.000975,0.793457,13.488769
18058,-0.056152,-0.498657,-0.960571,-31.616209,-3.112793,10.070800
18070,-0.059937,-0.523804,-0.939453,-35.400391,-5.310058,5.920410
18081,-0.055420,-0.547852,-0.919434,-39.367676,-6.286621,1.770019
18093,-0.050415,-0.573242,-0.899780,-45.715328,-6.042480,-1.464844
18104,-0.044434,-0.597412,-0.886841,-55.908199,-4.882812,-2.868652
18115,-0.036743,-0.620117,-0.880859,-69.213867,-3.479004,-1.525879
18127,-0.028442,-0.641357,-0.877686,-96.374504,-2.319336,9.704590
18138,-0.024902,-0.669922,-0.873535,-109.436028,-2.502441,17.578125
18149,-0.034790,-0.715088,-0.864990,-125.671379,-2.197266,25.329588
18161,-0.063110,-0.794678,-0.836548,-149.597168,0.000000,31.738279
18172,-0.060303,-0.814941,-0.821289,-182.250961,3.967285,36.621094
18183,-0.059082,-0.825562,-0.808228,-218.872055,8.728027,40.466305
18195,-0.045410,-0.804077,-0.799683,-252.990707,13.366698,42.541500
18206,-0.007324,-0.769165,-0.784058,-289.489746,14.831542,43.457027
18218,0.025024,-0.768799,-0.750732,-282.897949,10.192870,47.302242
18229,0.025757,-0.803467,-0.701538,-266.723633,5.432128,52.001949
18240,0.007812,-0.853638,-0.594849,-253.112778,2.868652,55.053707
18252,0.013550,-0.876953,-0.543823,-246.643051,2.136230,56.396481
18263,0.012329,-0.917358,-0.492554,-245.178207,2.563476,56.945797
18274,0.004028,-0.954224,-0.445679,-248.168930,4.455566,56.213375
18286,0.013428,-0.968140,-0.411133,-257.263184,8.300781,53.649899
18297,0.053223,-0.967896,-0.380493,-284.301758,13.793944,52.917477
18309,0.087891,-0.977905,-0.344116,-289.245605,12.268065,60.119625
18320,0.094604,-0.983765,-0.304443,-285.827637,9.643555,68.725586
18331,0.105347,-0.943359,-0.223633,-278.930664,6.591796,74.523926
18343,0.115479,-0.936279,-0.174438,-271.484375,2.624511,75.805664
18354,0.118408,-0.934692,-0.124512,-263.916016,-1.708984,72.570801
18365,0.130371,-0.928711,-0.081299,-258.789062,-5.615234,65.490723
18377,0.162231,-0.923828,-0.044312,-259.765625,-10.009766,56.579586
18388,0.195801,-0.909058,-0.010986,-271.118164,-26.062010,39.367676
18399,0.214966,-0.877930,0.025513,-269.226074,-37.475586,31.921385
18411,0.216919,-0.835327,0.074097,-255.065903,-48.461910,27.343748
18422,0.152832,-0.803955,0.193237,-229.980453,-55.419918,25.817869
18434,0.129395,-0.823242,0.255371,-202.026352,-57.312008,24.047850
18445,0.131348,-0.857666,0.306274,-180.419907,-55.969234,19.897461
18457,0.142944,-0.898315,0.343994,-170.654282,-53.466793,14.831542
18468,0.148193,-0.929077,0.376709,-187.438950,-45.043941,10.742187
18479,0.147339,-0.931763,0.405518,-205.505356,-39.062500,13.244628
18491,0.151245,-0.901367,0.427368,-221.191391,-33.630371,17.333984
18502,0.158325,-0.852661,0.450562,-228.820786,-29.541014,21.057127
18513,0.142456,-0.768677,0.524902,-227.111801,-25.207518,23.376463
18525,0.122681,-0.787598,0.567871,-221.557602,-18.249512,24.230955
18536,0.127319,-0.815918,0.596680,-221.679672,-7.690429,24.536131
18548,0.163452,-0.791992,0.609131,-234.619125,3.173828,25.878904
18559,0.208862,-0.704956,0.613647,-275.207520,5.859375,30.151365
18570,0.243042,-0.579102,0.622314,-278.076172,-5.065917,28.442381
18581,0.252197,-0.456665,0.646484,-258.911133,-19.531250,23.986814
18593,0.189575,-0.391357,0.742798,-223.693832,-30.822752,18.493652
18604,0.155273,-0.425293,0.794434,-188.476547,-33.813477,13.122558
18616,0.147217,-0.443237,0.839722,-166.748032,-28.381346,9.033203
18627,0.156006,-0.446899,0.867554,-159.606934,-18.859863,7.690429
18638,0.172485,-0.423218,0.876343,-161.315903,-9.155273,8.117676
18650,0.192139,-0.363892,0.878540,-169.372543,-1.220703,7.324218
18661,0.208618,-0.291260,0.880249,-164.184555,-5.004883,6.164550
18672,0.216553,-0.233398,0.885620,-149.230957,-12.084960,4.516602
18684,0.190918,-0.217285,0.915283,-128.479004,-19.836426,1.770019
18695,0.168335,-0.253052,0.932129,-109.191887,-25.268553,-1.953125
18706,0.149658,-0.278687,0.950562,-96.618645,-26.245115,-5.310058
18718,0.143066,-0.271240,0.965454,-91.918938,-22.521971,-6.347656
18729,0.150635,-0.232422,0.972046,-91.369621,-16.540527,-4.882812
18740,0.162476,-0.187500,0.973999,-79.406738,-9.460449,-1.892090
18752,0.167725,-0.162109,0.977661,-66.223145,-9.582520,-2.868652
18763,0.162720,-0.161377,0.986816,-51.940914,-10.192870,-3.967285
18774,0.142090,-0.188232,1.008911,-40.100098,-9.460449,-3.784179
18786,0.138916,-0.200439,1.012207,-32.836914,-6.713867,-2.990722
18797,0.137207,-0.212891,1.013184,-29.296873,-3.112793,-2.563476
18808,0.136841,-0.222900,1.016602,-28.808592,0.610352,-3.112793
18819,0.140503,-0.221802,1.019531,-32.348633,4.821777,-4.089355
18831,0.148315,-0.203979,1.017578,-42.602535,12.329101,-4.760742
18842,0.157104,-0.178589,1.010986,-41.809078,13.244628,-4.272461
18853,0.164551,-0.161255,1.001831,-36.621094,12.268065,-3.723144
18865,0.168213,-0.143311,0.990479,-28.564451,10.070800,-3.295898
18876,0.160522,-0.153198,0.989136,-18.554688,7.751464,-2.807617
18887,0.153564,-0.178833,0.988159,-9.033203,6.652832,-2.685547
18899,0.152832,-0.198242,0.988525,-3.479004,7.263183,-2.746582
18910,0.156372,-0.202759,0.989136,-1.831055,8.728027,-2.319336
18921,0.163940,-0.193481,0.985962,-1.342773,10.314940,-0.305176
18932,0.173218,-0.177246,0.979858,0.610352,9.094238,0.244141
18944,0.180176,-0.161987,0.974854,4.821777,6.530761,0.610352
18955,0.181274,-0.161377,0.973755,10.314940,3.845215,0.610352
18966,0.167603,-0.202881,0.978760,14.404296,2.319336,0.305176
18977,0.160278,-0.221924,0.982666,14.831542,2.563476,0.061035
18988,0.155762,-0.235229,0.983521,11.657714,4.699707,0.061035
19000,0.159546,-0.234375,0.980713,5.004883,8.178711,-0.305176
19011,0.170898,-0.215576,0.975220,-3.601074,11.962890,-0.793457
19022,0.184204,-0.187378,0.967407,-14.648437,15.197753,-0.122070
19033,0.193970,-0.161865,0.958862,-13.305663,13.610839,0.427246
19045,0.198242,-0.146606,0.951782,-7.873535,10.559081,0.610352
19056,0.193604,-0.154419,0.950928,-0.183105,6.835937,0.305176
19067,0.183594,-0.183105,0.955322,7.507324,3.540039,-0.183105
19079,0.171753,-0.221191,0.962036,12.145995,1.831055,-0.671387
19090,0.166504,-0.245728,0.968994,11.108397,2.441406,-1.159668
19101,0.168457,-0.250488,0.971802,4.577637,4.699707,-1.525879
19112,0.174072,-0.240356,0.970215,-14.831542,9.582520,-2.136230
19124,0.182251,-0.218140,0.967529,-21.911619,10.498046,-2.136230
19135,0.194214,-0.186890,0.962402,-23.803709,9.277344,-1.647949
19146,0.207031,-0.156250,0.953247,-19.897461,5.798339,-0.915527
19157,0.207886,-0.137573,0.939575,-11.718749,0.793457,-0.427246
19169,0.195923,-0.151489,0.945312,-1.708984,-4.211426,-0.305176
19180,0.181885,-0.178955,0.957520,7.141113,-7.446289,-0.244141
19191,0.171021,-0.206177,0.969238,12.023925,-7.751464,0.000000
19202,0.166748,-0.218994,0.977173,11.779784,-5.310058,0.488281
19214,0.170166,-0.215698,0.980103,1.281738,2.319336,1.586914
19225,0.178345,-0.202271,0.978516,-3.784179,4.943848,1.831055
19236,0.187012,-0.186279,0.973511,-6.225585,5.798339,1.708984
19247,0.204224,-0.151489,0.964111,-6.286621,4.272461,1.464844
19259,0.209229,-0.143066,0.964722,-4.821777,1.037598,0.854492
19270,0.203857,-0.145508,0.968262,-1.281738,-2.624511,-0.122070
19281,0.192505,-0.160278,0.975708,4.028320,-5.554199,-1.037598
19292,0.181274,-0.184326,0.985229,8.544922,-6.530761,-1.464844
19304,0.175537,-0.203979,0.992554,6.225585,-0.427246,-1.831055
19315,0.179443,-0.209717,0.994019,0.732422,3.906250,-1.831055
19326,0.192261,-0.203613,0.987671,-4.638672,6.347656,-1.831055
19337,0.205200,-0.192505,0.977905,-8.178711,6.286621,-1.892090
19349,0.213135,-0.165527,0.968506,-8.850098,4.455566,-1.770019
19360,0.210327,-0.156860,0.968384,-5.859375,1.647949,-1.220703
19382,0.198486,-0.163330,0.972900,6.713867,-3.234863,-0.305176
19393,0.192139,-0.175903,0.977173,12.084960,-4.150391,-0.427246
19404,0.187744,-0.193115,0.980591,12.695312,-0.854492,-0.305176
19416,0.187500,-0.206177,0.982788,7.080078,2.624511,-0.244141
19427,0.192627,-0.206177,0.983643,-0.488281,5.615234,-0.183105
19438,0.201660,-0.192749,0.981567,-6.896972,6.774902,-0.122070
19449,0.210815,-0.155518,0.973633,-9.948730,5.859375,-0.244141
19461,0.207275,-0.147583,0.973755,-8.972168,3.784179,-0.549316
19472,0.200439,-0.151123,0.976685,-4.821777,1.708984,-0.732422
19483,0.192993,-0.166016,0.980469,0.793457,0.610352,-0.488281
19495,0.187988,-0.186401,0.982056,5.187988,0.915527,-0.122070
19506,0.187256,-0.201782,0.979980,4.638672,3.967285,0.427246
19517,0.190674,-0.204834,0.976196,0.915527,5.126953,0.610352
19529,0.195435,-0.197998,0.972656,-2.868652,5.798339,0.732422
19540,0.199707,-0.178955,0.964722,-5.554199,6.225585,0.671387
19551,0.202759,-0.172729,0.959351,-6.652832,6.774902,0.488281
19563,0.208008,-0.169556,0.953003,-6.164550,6.896972,0.549316
19574,0.212891,-0.168701,0.948975,-4.394531,6.103515,0.732422
19585,0.213989,-0.170410,0.949341,-2.075195,4.333496,0.793457
19596,0.209473,-0.176636,0.952637,1.037598,0.427246,0.183105
19608,0.202515,-0.183594,0.958740,0.488281,0.183105,0.000000
19619,0.197144,-0.183594,0.965698,-1.159668,1.525879,0.122070
19630,0.201660,-0.165894,0.968262,-3.051758,3.479004,0.244141
19641,0.208984,-0.157349,0.966064,-4.333496,4.943848,-0.061035
19653,0.214600,-0.152710,0.962524,-4.882812,5.371093,-0.732422
19664,0.218628,-0.149780,0.957520,-4.760742,4.943848,-1.342773
19675,0.222412,-0.148193,0.953979,-3.723144,3.784179,-1.464844
19686,0.223022,-0.150513,0.953613,1.098633,0.366211,-0.976562
19698,0.217529,-0.157837,0.955933,3.417969,-1.037598,-1.037598
19709,0.210205,-0.167603,0.960327,4.333496,-1.647949,-1.342773
19720,0.204956,-0.178345,0.964478,3.173828,-1.098633,-1.708984
19731,0.206421,-0.184937,0.968018,0.122070,0.122070,-1.831055
19743,0.213135,-0.173462,0.967773,-3.173828,1.281738,-1.708984
19754,0.219604,-0.159424,0.966919,-5.004883,1.586914,-1.647949
19765,0.221436,-0.153687,0.968018,-4.516602,0.854492,-1.770019
19776,0.217163,-0.156616,0.971558,-2.014160,-0.366211,-1.953125
19788,0.211426,-0.161743,0.976807,4.455566,-1.831055,-1.831055
19799,0.208252,-0.170166,0.979980,6.591796,-1.770019,-1.831055
19810,0.206787,-0.180664,0.980225,7.141113,-1.159668,-1.892090
19821,0.205933,-0.196167,0.980591,5.554199,0.000000,-1.831055
19833,0.209473,-0.193359,0.975708,2.136230,1.525879,-1.647949
19844,0.215088,-0.183716,0.969116,-1.831055,2.563476,-1.525879
19855,0.219971,-0.170776,0.963379,-4.638672,2.746582,-1.281738
19866,0.220581,-0.156006,0.959717,-5.126953,2.197266,-0.793457
19878,0.217896,-0.148438,0.959229,1.464844,0.061035,-0.122070
19889,0.214966,-0.156006,0.961670,5.798339,-0.549316,-0.061035
19900,0.211548,-0.176025,0.965576,7.629394,-0.305176,-0.061035
19911,0.206421,-0.196045,0.969727,5.737304,0.671387,0.122070
19923,0.206299,-0.194092,0.974731,1.098633,2.258301,0.244141
19934,0.213623,-0.176270,0.972778,-4.028320,3.662109,0.122070
19945,0.220703,-0.157959,0.967773,-7.812500,4.333496,-0.122070
19956,0.223999,-0.146729,0.963135,-8.850098,3.967285,-0.244141
19968,0.223511,-0.144043,0.961182,-6.835937,2.807617,-0.183105
19979,0.220459,-0.148560,0.962158,1.525879,0.976562,0.122070
19990,0.216553,-0.155518,0.965698,4.821777,0.732422,0.305176
20001,0.213867,-0.163086,0.968384,6.591796,0.671387,0.427246
20013,0.212280,-0.181519,0.967651,6.408691,0.549316,0.305176
20024,0.212769,-0.185059,0.967163,4.150391,0.488281,0.061035
20035,0.214233,-0.182007,0.967651,0.366211,0.610352,-0.305176
20046,0.216553,-0.170410,0.967407,-3.723144,0.915527,-0.671387
20058,0.220581,-0.151611,0.966553,-6.652832,1.098633,-0.915527
20069,0.223755,-0.133301,0.965088,-4.089355,0.183105,-1.342773
20080,0.224121,-0.124756,0.963501,0.976562,-0.915527,-1.647949
20091,0.222412,-0.131958,0.963135,6.225585,-1.953125,-1.892090
20103,0.218384,-0.152588,0.963989,9.643555,-2.746582,-1.831055
20114,0.209106,-0.193115,0.970215,10.009766,-2.990722,-1.403808
20125,0.204956,-0.198486,0.972900,7.934570,-2.746582,-0.854492
20136,0.203247,-0.194824,0.975830,4.455566,-1.892090,-0.732422
20148,0.204834,-0.185303,0.976562,0.854492,-0.671387,-1.037598
20159,0.207886,-0.172119,0.973755,-1.525879,0.549316,-1.281738
20170,0.211914,-0.160156,0.969238,0.122070,1.770019,-1.220703
20181,0.216064,-0.154785,0.965454,3.540039,1.586914,-1.159668
20193,0.218872,-0.155273,0.964722,7.385253,1.220703,-1.037598
20204,0.218262,-0.167236,0.969604,10.559081,1.159668,-0.915527
20215,0.217529,-0.176025,0.973389,12.207030,1.525879,-1.037598
20226,0.217773,-0.178345,0.978027,12.207030,2.075195,-1.220703
20238,0.218628,-0.173218,0.982178,11.779784,2.563476,-1.342773
20249,0.215820,-0.161133,0.987427,12.512206,3.356933,-1.342773
20260,0.210815,-0.141479,0.993530,24.597166,9.277344,-0.305176
20271,0.210571,-0.117432,0.995117,37.048340,14.709472,1.159668
20283,0.216309,-0.092896,0.991089,54.260250,19.531250,2.685547
20294,0.226807,-0.073853,0.984009,77.209473,22.094725,2.929687
20305,0.243652,-0.119507,0.964478,105.712883,22.094725,0.549316
20316,0.242920,-0.191040,0.953979,134.643555,20.629881,-3.479004
20328,0.243164,-0.272095,0.945435,154.907227,19.165039,-7.141113
20339,0.247192,-0.333740,0.931763,161.315903,18.737793,-9.338379
20350,0.251831,-0.339355,0.916626,156.188965,18.737793,-10.437011
20362,0.259521,-0.303711,0.907471,150.695801,14.038085,-13.122558
20373,0.270264,-0.281982,0.896851,164.855942,9.643555,-15.075683
20385,0.275879,-0.295288,0.879150,186.218246,5.981445,-17.028809
20396,0.266846,-0.362793,0.828979,206.176743,3.784179,-19.409180
20407,0.261230,-0.409058,0.802246,220.764145,2.258301,-22.277830
20419,0.260254,-0.460571,0.777832,229.858383,0.488281,-25.695799
20430,0.261230,-0.509033,0.756592,234.313950,-1.953125,-29.235838
20441,0.256592,-0.562134,0.737427,232.971176,-6.469726,-34.912109
20453,0.246704,-0.610596,0.716675,226.684555,-7.019042,-36.193848
20464,0.234253,-0.650146,0.693481,217.346176,-6.591796,-36.071777
20476,0.218750,-0.708618,0.644165,207.031235,-5.859375,-34.790039
20487,0.211182,-0.733765,0.620361,198.425278,-5.187988,-33.142090
20498,0.201416,-0.757568,0.595093,192.504868,-4.089355,-31.921385
20510,0.191772,-0.768311,0.569702,188.964828,-2.258301,-31.738279
20521,0.181641,-0.788452,0.546509,187.561020,-0.366211,-32.897949
20533,0.173828,-0.829590,0.521362,183.593735,3.662109,-36.926270
20544,0.172363,-0.869263,0.494629,176.818832,5.249023,-37.841797
20555,0.173828,-0.897217,0.468750,168.090805,5.737304,-37.231445
20566,0.188721,-0.882690,0.405273,160.827621,4.455566,-36.010742
20578,0.191772,-0.864502,0.371216,159.423828,0.793457,-35.217285
20589,0.180786,-0.860962,0.339722,165.405258,-4.516602,-35.278320
20601,0.157104,-0.872559,0.315552,175.964340,-9.399414,-36.376953
20612,0.129883,-0.901611,0.295288,186.950668,-11.779784,-38.085938
20624,0.108521,-0.948242,0.273438,193.298325,-6.103515,-40.222164
20635,0.099487,-0.994629,0.250732,183.654770,-0.305176,-39.733887
20646,0.105835,-1.008667,0.227173,169.372543,4.455566,-38.330078
20658,0.137451,-0.931274,0.168945,158.935547,6.164550,-36.865234
20669,0.142944,-0.895996,0.132812,158.508301,4.150391,-36.560059
20680,0.132446,-0.897217,0.093994,168.395981,-0.549316,-37.841797
20692,0.114380,-0.918335,0.055054,183.349594,-5.737304,-40.588375
20703,0.097168,-0.947510,0.020264,196.411118,-9.765625,-43.945309
20714,0.082642,-0.992065,-0.009644,203.552231,-12.512206,-46.325680
20726,0.075562,-1.026367,-0.038818,196.228012,-12.695312,-44.555660
20737,0.076172,-1.015015,-0.068481,187.194809,-14.099120,-43.334957
20749,0.085083,-0.908203,-0.139282,182.861313,-16.723633,-44.128414
20760,0.089355,-0.848633,-0.187500,188.293442,-21.057127,-46.874996
20771,0.086548,-0.813599,-0.238647,205.383286,-27.282713,-51.269527
20783,0.070068,-0.821899,-0.288330,231.323227,-34.729004,-56.701656
20794,0.039673,-0.870605,-0.331665,276.733398,-44.799801,-64.453125
20806,0.004028,-0.928223,-0.364380,279.479980,-44.189449,-64.331055
20817,-0.020874,-0.966064,-0.389404,268.188477,-40.222164,-61.767574
20828,-0.034302,-0.949585,-0.458496,251.831039,-35.583496,-58.166500
20840,-0.040527,-0.912109,-0.501465,237.365707,-31.677244,-54.870602
20851,-0.039185,-0.865112,-0.533081,226.989731,-28.381346,-52.551266
20863,-0.041016,-0.836182,-0.557739,221.740707,-25.512693,-50.720211
20874,-0.047241,-0.833740,-0.587036,219.238266,-21.972654,-48.522945
20885,-0.046387,-0.851807,-0.619263,205.932602,-14.465331,-41.503902
20897,-0.045288,-0.880615,-0.646240,190.246567,-12.756347,-36.560059
20908,-0.056152,-0.890625,-0.666260,168.395981,-12.084960,-31.677244
20920,-0.063599,-0.844727,-0.694702,142.883301,-11.352538,-27.465818
20931,-0.057373,-0.819092,-0.711792,117.065422,-10.375976,-23.376463
20942,-0.051880,-0.802124,-0.726196,94.177238,-9.460449,-18.676758
20954,-0.054199,-0.801514,-0.735596,76.416016,-8.605957,-13.122558
20965,-0.067139,-0.809448,-0.739136,46.508785,-4.821777,-0.183105
20977,-0.074707,-0.805420,-0.742188,28.076170,-1.342773,5.371093
20988,-0.067871,-0.794189,-0.746338,8.056641,1.831055,10.192870
20999,-0.057373,-0.796875,-0.748047,-10.986327,4.272461,14.587401
21011,-0.058350,-0.791504,-0.746338,-28.320311,6.347656,18.249512
21022,-0.058594,-0.792847,-0.742920,-44.311520,7.873535,20.629881
21033,-0.063354,-0.817749,-0.737427,-59.997555,9.216309,22.460936
21045,-0.070801,-0.851807,-0.729004,-77.697754,11.291503,24.963377
21056,-0.076050,-0.880249,-0.718628,-130.126953,20.080564,34.729004
21067,-0.081299,-0.912598,-0.707520,-162.963852,26.489256,42.419430
21079,-0.084961,-0.949219,-0.696655,-197.570786,33.569336,51.086422
21090,-0.072021,-0.988037,-0.669067,-233.276352,39.916992,59.387203
21101,-0.058594,-0.994263,-0.650879,-266.845703,44.372555,66.772461
21113,-0.037720,-0.985718,-0.629395,-294.433594,46.264645,72.204590
