timestamp,ax,ay,az,gx,gy,gz,label
79,0.08143520715459805,0.020706182278984384,0.5222582946421259,-0.09268770774159611,-0.004499307358772625,0.07097480243676174,junk
90,0.0760094671775028,0.012843776958125764,0.5543809033554734,-0.102627103849219,-0.02692173769681163,0.053910965217814036,junk
102,0.07135837936799756,0.01698170665500861,0.5869640445244808,-0.10386952454594571,-0.053420981141130836,0.04253506338391865,junk
113,0.06321818200037196,0.015327890363379759,0.6044041266616706,-0.04920287139886092,-0.07788182638161036,0.036847096935075666,junk
124,0.05159204987859161,-0.015288044838618951,0.6039454739303196,-0.025596827271371445,-0.05851699334933089,0.025471195101180306,junk
135,0.04732828815288139,-0.06824066688103987,0.5929302894806611,-0.019384703431865102,-0.028960152599252147,0.010303336343916681,junk
147,0.035702156031101044,-0.125327829652533,0.5695258421115996,-0.03491500285269456,0.0016159039513472541,-0.008656510400505796,junk
158,0.03376552561212616,-0.13029266749523036,0.5603471483116538,-0.06349075012296367,0.02505755008990694,-0.01624042424724227,junk
169,0.0217520674065508,-0.11002325101934428,0.5539222506241225,-0.09268770774159611,0.04646078132602611,-0.002968543951662782,junk
180,0.012837217871335264,-0.08395869958713567,0.5520876396987185,-0.10386952454594571,0.06276800035394524,0.012199314805600815,junk
192,0.013611870038925198,-0.08106452107678523,0.5596591692146273,-0.08088468058888318,0.06582561435830558,0.025471195101180306,junk
203,0.010513261368565372,-0.1265681918712546,0.5754920870677799,-0.016899851860475282,0.051556793534226146,0.036847096935075666,junk
214,0.0008237596657599018,-0.18117801917311518,0.5927009631149854,-0.017521072386775038,0.0637872161544659,0.04443104184560279,junk
225,-0.0003382185856249556,-0.1977263489928363,0.6053214321243725,-0.03243015128130474,0.08926724379826444,0.05770292214118228,junk
237,0.012837217871335264,-0.1774535435491394,0.6087632073338136,-0.03864227512081109,0.1147472881406638,0.07097480243676174,junk
248,0.024850676076910626,-0.1592513974377896,0.6000431662652186,-0.028702879013188215,0.1341121211729433,0.0899346181173936,junk
259,0.02601582913226111,-0.1671104137908374,0.5860467390617787,-0.011308948547268693,0.15245775510330292,0.11458240024686844,junk
270,0.04190254817578614,-0.1832452895376513,0.5692965157459242,0.010433464535130712,0.1677457750293022,0.1392301823763433,junk
281,0.06941857414505714,-0.22296060331141956,0.5608058010430047,0.037766791108673106,0.1708033890336626,0.16956593095466113,junk
293,0.07910807584786263,-0.25274624139979335,0.5518583133330431,0.0501910286097494,0.1626497628211022,0.20748559337971548,junk
304,0.07988272801545256,-0.25936489553411957,0.5291418450610083,0.0004940786054442416,0.1381889342792235,0.2719490163959288,junk
315,0.0887975775506681,-0.258537987388305,0.5052768652362871,-0.014415010467021866,0.1147472881406638,0.3003887554487719,junk
326,0.09422331752776325,-0.26391627930390965,0.4995418263700913,-0.03926348546917444,0.09436325600646447,0.32693251603993084,junk
337,0.10507479748195367,-0.24778140355709596,0.511472436558143,-0.06659680186478044,0.08213283338622472,0.3534763076948804,junk
349,0.10468747139815875,-0.14394342983679026,0.541531107980411,-0.08336953216027301,0.06990241076598495,0.38760398213277586,junk
360,0.11204984179422879,-0.11043670509225154,0.5390085179579805,-0.09641498000971266,0.049518378631785626,0.41414774272393484,junk
371,0.13065419303224982,-0.08395869958713567,0.5328129466361249,-0.11070285873381541,0.027095948293746622,0.41983570917277785,junk
382,0.14460428165680003,-0.05582687779039095,0.5300591505237103,-0.12374829640531865,0.00875031436338698,0.41793973071109375,junk
394,0.14111517209867966,-0.041762661375924,0.5307471296207368,-0.13058163059318834,-0.0004224942524924265,0.41035578580056664,junk
405,0.1310415191160448,-0.039695391011387894,0.5289125186953328,-0.13617254408433133,-0.0034800915582519475,0.3724361233755123,junk
416,0.10623677573333862,-0.04258956952173852,0.5192751721640361,-0.13989980617451145,-0.006537705562612305,0.3553722861565646,junk
427,0.07562214109370788,-0.054999969644576624,0.511472436558143,-0.14611193001401782,-0.002460892456332107,0.35158032923319626,junk
439,0.0450043316501115,-0.052519245207133254,0.5445142304585012,-0.1517028333272244,0.013846326571587018,0.3705401449138282,junk
450,0.03841661342163139,-0.021079790827130837,0.5670013723648605,-0.14549071966565447,0.044422383122186423,0.4065638288771984,junk
461,0.0407405699244012,0.011189960666496912,0.5803098204712741,-0.12374829640531865,0.0790752360804652,0.43310758946835737,junk
472,0.05081739771100168,0.024013814862242272,0.5862760654274541,-0.09455134896462258,0.10863207683054392,0.4312116110066732,junk
484,0.06593263939090231,0.017808614800823127,0.5913250049209327,-0.07280892570428678,0.12697771076090356,0.4008758624283554,junk
495,0.08182253323839297,0.009536144374868062,0.5956840855930756,-0.0902028561702063,0.1473617428951029,0.30228473391045596,junk
506,0.09422331752776325,0.010363052520682394,0.5897178406368954,-0.11070285873381541,0.14634254379318304,0.25867713610034926,junk
517,0.10468747139815875,0.012016868812311244,0.5709018003056526,-0.1187786034404754,0.12901612566334408,0.22834138752203145,junk
528,0.10391281923056873,-0.0008069853834339277,0.5539222506241225,-0.11629376204702199,0.09538245510838432,0.20748559337971548,junk
540,0.07872074976406761,0.01987588516535924,0.5452040892798364,-0.10821800716242558,0.051556793534226146,0.18473378971192472,junk
551,0.07135837936799756,0.07324535024849804,0.5465800474738893,-0.09579376966134931,0.0067119161595473,0.16387796450581815,junk
562,0.06825659589367221,0.1220600425940361,0.554610229721149,-0.07343013605265013,-0.022844941289132267,0.1468141272868704,junk
573,0.08143520715459805,0.15225913475531694,0.5626422916927175,-0.0398846958175378,-0.015710514178491713,0.14302217036350218,junk
585,0.10468747139815875,0.16342917265943324,0.5651667614394567,-0.0044756143593989925,0.028115147395666465,0.15060608421023866,junk
596,0.1337528017026096,0.17335884834482818,0.5575933521992392,0.01975165029439023,0.14124653158498301,0.16387796450581815,junk
607,0.16979635112330116,0.18163131877078323,0.5385498652266297,-0.0019907729659455766,0.17284178723750226,0.15060608421023866,junk
618,0.20390009532105227,0.1762530268551786,0.5160627233202703,-0.04174832686262786,0.1820146125519825,0.12406232361907969,junk
630,0.22211394567131273,0.16673680524269113,0.4990812939144314,-0.08709680442838953,0.17691860034378246,0.09751856302792072,junk
641,0.2143642491914477,0.16839401050213082,0.47292305043295535,-0.1150513413502953,0.16163056371918236,0.08803863965570947,junk
652,0.20583672574002715,0.18369858913531936,0.46741733793243495,-0.12002102413720211,0.13513132027486313,0.0918305965790777,junk
663,0.20390009532105227,0.20314448643320174,0.4687932961264878,-0.11443013100193193,0.1014976664185042,0.09372657504076184,junk
674,0.2085511831305575,0.226311470387249,0.4651221945513712,-0.10200589350085564,0.06786401256214528,0.08614266119402536,junk
686,0.22250127175510775,0.2370646652506475,0.4580093177668135,-0.08336953216027301,0.043403184020266584,0.06149487906455051,junk
697,0.2352925569322385,0.20438484865192333,0.45112576734793136,-0.06597560169435349,0.0240383509879871,-0.029512335606612383,junk
708,0.23451472996068304,0.16260226451361892,0.4437816844733894,-0.09206649739323278,0.0240383509879871,-0.08449583525061448,junk
719,0.227152359564613,0.15970469703545767,0.43873462470421976,-0.12747556867343518,0.011807928367747338,-0.12620745459903704,junk
731,0.2147515752752426,0.19362826482071419,0.46259772480463207,-0.14673314036238116,-0.022844941289132267,-0.1508552367285119,junk
742,0.20312544315346226,0.17873375129262198,0.485772845808018,-0.14238465774590128,-0.07686261058108969,-0.1660230954857755,junk
753,0.18839752755735664,0.1448135724751762,0.5169800287829723,-0.1287179995480983,-0.1431107191918877,-0.1830869327047232,junk
764,0.16785654590036075,0.12123313444822159,0.552775618795745,-0.11443013100193193,-0.20833962870076586,-0.20015080098746157,junk
776,0.15157932596907508,0.11337072912736297,0.5851294335990768,-0.09827862123273912,-0.25929973408416546,-0.20773474589798868,junk
787,0.14886804338251025,0.10427135055559339,0.619088532962137,-0.08461195285699973,-0.32554780929776184,-0.1660230954857755,junk
798,0.1291017138931044,0.109649642471198,0.6528201856838304,-0.06970286378453361,-0.33472063461224205,-0.11293557430345753,junk
809,0.08995955580205303,0.11792211289715307,0.6757659803215409,-0.044233178434017674,-0.31535580157996257,-0.05036812974892835,junk
821,0.05391918118532704,0.11626829660552422,0.6911383657190338,-0.02683924796809815,-0.2633765471904456,0.010303336343916681,junk
832,0.03531482994730603,0.12454076703147948,0.7021535501686923,-0.020627124128591807,-0.17776357215016647,0.053910965217814036,junk
843,0.03415285169592109,0.117508658824246,0.6824202043747474,-0.016899851860475282,-0.06361298885893009,0.0899346181173936,junk
854,0.035702156031101044,0.10220069122324646,0.645705429174964,-0.010687738198905339,0.055633589941905516,0.12406232361907969,junk
866,0.04345502731493164,0.05462636109643017,0.6044041266616706,-0.007581676279152166,0.1504193402008624,0.15629405065908167,junk
877,0.05391918118532704,-0.03928193693848063,0.5718209854926634,-0.020005913780228455,0.20545624199194135,0.17525386633971352,junk
888,0.06554531330710739,-0.11994953773692837,0.5534635978927717,-0.09579376966134931,0.21259065240398106,0.27574097331929703,junk
899,0.08220985932218798,-0.13401714311920615,0.5452040892798364,-0.1187786034404754,0.1820146125519825,0.37622811136267115,junk
910,0.09848707925347357,-0.08851008335692596,0.541531107980411,-0.1119452794305421,0.14022733248306316,0.48429916325278183,junk
922,0.11825023393891398,-0.026454693774924647,0.5408431288833846,-0.08647558390208979,0.09436325600646447,0.5753063157963634,junk
933,0.18452109191544133,0.08110436660154603,0.5403844761520336,-0.06473317081969038,0.049518378631785626,0.6340818034275244,junk
944,0.22560305522943302,0.12454076703147948,0.5500218226833304,-0.0547937848900039,0.0067119161595473,0.6454577052614198,junk
955,0.27482204110708486,0.16260226451361892,0.5589711901176009,-0.04858166105049756,-0.02488333949297195,0.6283938369786813,junk
967,0.3252030052361215,0.20521175679773784,0.5674600250962115,-0.04174832686262786,-0.038132944516530716,0.6018500763875224,junk
978,0.35775744509869284,0.2465808868631351,0.5814583320239601,-0.033672582155967856,-0.038132944516530716,0.5734103373346794,junk
989,0.3763586215327483,0.26726375741192837,0.5956840855930756,-0.013793800118658514,-0.015710514178491713,0.5013630004717295,junk
1000,0.3852734710679637,0.25609710847562267,0.6027969623776334,-0.016278641512111926,-0.01265291687273219,0.44637946976393683,junk
1012,0.3864354493193486,0.20066037302794765,0.58948851427122,-0.043611968085654325,-0.03303694900693151,0.3857080036710918,junk
1023,0.36899625113667817,0.1820447728436905,0.5881125560771668,-0.08274832181190965,-0.07074739927096982,0.3307245040270897,junk
1034,0.33140339738080676,0.2387218705100871,0.6156467577526957,-0.10076347280412894,-0.10743868383028994,0.2965967985254036,junk
1045,0.2670691698232543,0.27305550340044016,0.6303330437774711,-0.08461195285699973,-0.13088029657164793,0.2890128536148765,junk
1057,0.200023659679137,0.2838120872316494,0.6305623701431465,-0.05168772297025073,-0.14107232098804803,0.2965967985254036,junk
1068,0.16708189373277071,0.28422554130455663,0.6172539220367331,-0.028081668664824862,-0.1339379105760083,0.28522089669150824,junk
1079,0.1794826780221411,0.3131842712471158,0.5988965344368412,-0.007581676279152166,-0.0676898019652103,0.2036936053925566,junk
1090,0.22521572914563812,0.3669638014353511,0.5773266979931839,0.009191043838404002,-0.022844941289132267,0.16387796450581815,junk
1102,0.2794731289165901,0.4000604610747932,0.5371720273082681,0.020994070991116942,0.0240383509879871,0.13733420391465917,junk
1113,0.3217138956780013,0.4228139909559333,0.4926563962269001,0.0296910362240767,0.07092162656650564,0.12216634515739558,junk
1124,0.33489250693892697,0.5055522510867277,0.4818724178672258,0.05826678349434581,0.1229009143532242,0.10320649841297308,junk
1135,0.30737648096965603,0.46956141293693515,0.4763648256423965,0.10361525088217108,0.17997619764954198,0.06907879291128699,junk
1147,0.27055827938137456,0.39633598545081755,0.4664981527454243,0.13467584972383,0.22380185922370016,0.023575216639496174,junk
1158,0.21940266308474793,0.32352740100541777,0.4704004604105251,0.13467584972383,0.2482627044641797,-0.025720347619453528,junk
1169,0.16940902503950614,0.27512616273278695,0.48829731555475714,0.10982736454374102,0.26355072439017896,-0.09397572755903504,junk
1180,0.1523539781366651,0.2511322706329252,0.5098671519984146,0.014781947151610592,0.2747619479084989,-0.272198168914202,junk
1192,0.15661773986237532,0.23789157339646194,0.5289125186953328,-0.03429379250433121,0.2625315252882591,-0.3214937642369423,junk
1203,0.1562304137785804,0.2407891408746232,0.5454334156455118,-0.06535439134599012,0.24010909495022012,-0.3214937642369423,junk
1214,0.14886804338251025,0.28670965470981064,0.5683792102832221,-0.06659680186478044,0.2156482497097406,-0.2987419605691516,junk
1225,0.1496426955501002,0.2982931466868343,0.5725089645896897,-0.033672582155967856,0.19628343337606194,-0.26840621199083375,junk
1237,0.14809339121492032,0.3044983467482534,0.5592005164832763,0.033418308492193224,0.19118742116786192,-0.21531865974472514,junk
1248,0.14266765123782515,0.31938947130853484,0.5371720273082681,0.1210091813480906,0.20036024648234216,-0.13189538998408937,junk
1259,0.12987636606069433,0.33097296328555853,0.5215684358207909,0.2135697573467676,0.2197250628160208,-0.03899225897882366,junk
1270,0.10391281923056873,0.2858827465639962,0.5206511303580889,0.3322212494001967,0.26355072439017896,0.05011897723065516,junk
1282,0.056630463771891855,0.13405698864396695,0.5328129466361249,0.306751543693808,0.28393475652437833,0.03495111847339153,junk
1293,0.004700195307675198,-0.038038185751948415,0.5385498652266297,0.21729702961488415,0.31756844377793886,0.0008234129717054562,junk
1304,-0.019329895907440976,-0.10588532132246142,0.5335009257331512,0.0911910133810948,0.3593557071482574,-0.029512335606612383,junk
1315,0.01516434917807069,-0.020662947786412762,0.4926563962269001,-0.03243015128130474,0.3878933153992146,-0.03520027099166478,junk
1327,0.04577898381770144,0.032703128328915226,0.4724643977016046,-0.1256119376283451,0.37973973928245675,-0.008656510400505796,junk
1338,0.07949540193165763,0.06952087462452246,0.4619097457076057,-0.1740664669359236,0.33693327681021834,0.04443104184560279,junk
1349,0.10003638358865344,0.08813647480877951,0.4451595223917511,-0.17220283589083352,0.2798579601166989,0.12406232361907969,junk
1360,0.09964905750485852,0.09806615049417423,0.4114297493943665,-0.1287179995480983,0.22380185922370016,0.21506950722645196,junk
1372,0.08143520715459805,0.1063386209201295,0.3760928121129446,-0.020627124128591807,0.11067049173298445,0.30228473391045596,junk
1383,0.056630463771891855,0.09640894523473477,0.36507762766328583,0.007327412793313941,0.053595191738065824,0.27384499485761293,junk
1394,0.03531482994730603,0.05007836629445088,0.38802342230099635,0.007948623141677295,-0.0034800915582519475,0.22834138752203145,junk
1405,-0.027466918471100953,-0.11829572144529953,0.46259772480463207,-0.016899851860475282,-0.0656514037613706,0.1961096915458201,junk
1416,-0.07668590434875279,-0.17455936503878897,0.4821017442329014,-0.0672180223910802,-0.12884189836780827,0.188525746635293,junk
1428,-0.11854251983033451,-0.16959452719609158,0.49518086597363925,-0.13493011320966822,-0.19101319387232607,0.188525746635293,junk
1439,-0.15652269967000093,-0.11167706731097331,0.5117017629238184,-0.19580889019625938,-0.25012690876968524,0.1904217250969771,junk
1450,-0.1937250525381118,-0.03514400724159779,0.5376306800396189,-0.22873310990507195,-0.30822137446932196,0.188525746635293,junk
1462,-0.2216284045911778,0.037664577203801966,0.5674600250962115,-0.21071797926872549,-0.3622390771584811,0.1961096915458201,junk
1473,-0.24178206016437867,0.09516858301601298,0.5885712088085179,-0.17220283589083352,-0.3489894554363215,0.21506950722645196,junk
1484,-0.2607705626822291,0.12123313444822159,0.6073872491397608,-0.12188466536022859,-0.3235094110939221,0.24161329888140157,junk
1495,-0.27666045652971977,0.11378418320027023,0.6294138585904602,-0.07094529465919672,-0.2888565414370425,0.2700530379342446,junk
1507,-0.27433650002694987,0.0463538906704751,0.649147204384405,-0.036157423549421266,-0.2521653236721257,0.2890128536148765,junk
1518,-0.26387234615655447,0.01946243109245198,0.6459347555406394,-0.02683924796809815,-0.22260846622344616,0.2947008200637195,junk
1529,-0.24953175664424374,0.01739516072791587,0.6498370632057402,-0.03926348546917444,-0.19712840518244595,0.2965967985254036,junk
1540,-0.23713097235487343,0.027324836413310787,0.6624556524908184,-0.0547937848900039,-0.163494751326087,0.3098686788209831,junk
1552,-0.2309305802101883,0.046767344743382365,0.67186367265644,-0.059142267506483784,-0.11559229334424947,0.33830841787382615,junk
1563,-0.226279492400683,0.05917774486622046,0.6686512238126741,-0.03802106477244774,-0.0014416933544122669,0.40466785041551423,junk
1574,-0.21775514375322805,0.06124501523075657,0.6546547966092344,-0.04112711651426451,0.05461439083998568,0.41035578580056664,junk
1585,-0.1944997047057018,0.0790337072691993,0.6351507771809651,-0.05852105715812043,0.1014976664185042,0.39329194858161887,junk
1597,-0.10846569204373402,0.15557015630638546,0.6133516143716322,-0.07653619797240331,0.13920813338114332,0.3667481879904599,junk
1608,-0.07668590434875279,0.18452549728113388,0.6002724926308942,-0.07902104954379313,0.1718225881355824,0.3553722861565646,junk
1619,-0.05963403224987719,0.19156099445617805,0.5773266979931839,-0.0672180223910802,0.18914902296402222,0.3648522095287758,junk
1630,-0.04723324796050691,0.18907688105092396,0.5598884955803027,-0.05168772297025073,0.18609140895966186,0.37622811136267115,junk
1642,-0.031343354113016336,0.2068655730893667,0.5513977808773833,-0.03553621320105792,0.17284178723750226,0.38381202520940766,junk
1653,-0.0015001968370099011,0.23251667044866806,0.5426796195330973,0.015403157499973945,0.15245775510330292,0.3857080036710918,junk
1664,0.02833978563503091,0.2316863733350429,0.5348768839272043,0.03403951884055658,0.13513132027486313,0.38381202520940766,junk
1675,0.038803939505426314,0.21968942728511207,0.5344182311958533,0.03900921180539982,0.11270888993682412,0.37622811136267115,junk
1686,0.038803939505426314,0.2114169568591569,0.536254721845566,0.03155467744710317,0.08722884559442476,0.36106022154161693,junk
1698,0.03725463517024645,0.15887778888964316,0.5445142304585012,0.016645588374637057,0.0637872161544659,0.3572682646182487,junk
1709,0.04190254817578614,0.14564048062099072,0.5536929242584471,0.004221350873560769,0.05461439083998568,0.38760398213277586,junk
1720,0.0577924420232768,0.15639706445219978,0.5458920683768629,0.0017364993021709509,0.06888321166406511,0.44448349130225273,junk
1731,0.08182253323839297,0.1592912429625504,0.5321249675390984,0.004842561221924123,0.09334405690454464,0.49377905556120244,junk
1743,0.10584944964954361,0.15763742667092157,0.5332715993674759,-0.00012713174291911178,0.10251686552042405,0.5051549573950977,junk
1754,0.13142884519983974,0.1762530268551786,0.540613802517709,-0.030566520236214683,0.05869120394626587,0.4558593931361481,junk
1765,0.1581702190015208,0.21886251913929763,0.5392378443236562,-0.036157423549421266,0.02505755008990694,0.4312116110066732,junk
1776,0.17522209110039633,0.2631292166828561,0.5298298241580347,-0.0330513616296681,-0.006537705562612305,0.41035578580056664,junk
1787,0.17870802585455117,0.2742992545869725,0.5174386815143233,-0.0262180376197348,-0.03711376211321172,0.395187927043303,junk
1799,0.14770606513112533,0.19652244333106472,0.5206511303580889,-0.023111975699981625,-0.06361298885893009,0.38949996059446,junk
1810,0.1325908234512247,0.1886634269780168,0.5305178032550611,-0.02746045831646151,-0.08195862278928973,0.3913959390561441,junk
1821,0.11127518962663886,0.20107382710085492,0.5449728831898522,-0.0398846958175378,-0.09418906210813033,0.3970839055049872,junk
1832,0.08337183757357293,0.21638179470185426,0.5672306987305361,-0.05044530227352403,-0.10336187072400972,0.4008758624283554,junk
1844,0.06244352983278203,0.24616743279022782,0.584670780867726,-0.04733924035377085,-0.10030425671964936,0.40845980733888254,junk
1855,0.05624313768809684,0.2742992545869725,0.591095678555257,0.00608498191865083,-0.07074739927096982,0.4255236445578302,junk
1866,0.059732247246217215,0.2759530708786015,0.5933889422120119,0.03838800145703647,-0.0615745906550904,0.4255236445578302,junk
1877,0.06593263939090231,0.25361299507036855,0.5931596158463365,0.059509204191072515,-0.0574977775488102,0.41414774272393484,junk
1889,0.07484431412215231,0.18618270254057342,0.5777872304488436,0.05826678349434581,-0.056478578446890366,0.395187927043303,junk
1900,0.07290768370317743,0.1410890968512004,0.5787045359115457,0.03155467744710317,-0.05444018024305069,0.3724361233755123,junk
1911,0.06128155158139709,0.11668175067843148,0.5922423103836345,-0.00944531750217863,-0.042209757622810914,0.3648522095287758,junk
1922,0.04926809337582181,0.12578112925020107,0.6032556151089844,-0.051066512621887376,-0.014691315076571872,0.37433210183719645,junk
1934,0.046940962069086385,0.16011815110836491,0.6105996979835263,-0.08150589093724654,0.014865525673506859,0.3913959390561441,junk
1945,0.052366702046181546,0.20976314056752796,0.6259720833810193,-0.09641498000971266,0.03423035870578634,0.39329194858161887,junk
1956,0.06244352983278203,0.2656099411202995,0.6482298989217029,-0.08336953216027301,0.03117276140002682,0.3705401449138282,junk
1967,0.06786926980987719,0.3016007792700921,0.6638334904091803,-0.06659680186478044,0.027095948293746622,0.3439963843226692,junk
1978,0.06089422549760216,0.30615216303988224,0.6697997353653605,-0.0547937848900039,0.030153562298106982,0.3288285255654056,junk
1990,0.02523800216070555,0.2958090332815802,0.6977925897722402,-0.051066512621887376,0.053595191738065824,0.3364124394121421,junk
2001,0.01399919612272021,0.31235736310130124,0.7106423851473028,-0.05168772297025073,0.10659367862670424,0.3667481879904599,junk
2012,0.010513261368565372,0.34090263897095324,0.7099544060502763,-0.05417257454164055,0.18507220985774203,0.40466785041551423,junk
2023,0.01710097959704557,0.3731690014967702,0.6966459579438629,-0.05603620558673061,0.27170435060273934,0.4312116110066732,junk
2034,0.031051068221595726,0.3934418069404669,0.6785178967096466,-0.05727863646139372,0.3440676872222581,0.4312116110066732,junk
2046,0.04810611512443686,0.4070925692820267,0.6631455113121536,-0.05541499523836726,0.40521975022765444,0.3913959390561441,junk
2057,0.06864392197746721,0.4203298775506793,0.6528201856838304,-0.05168772297025073,0.396046941611775,0.36295623106709163,junk
2068,0.09034688188584795,0.4273653747257235,0.6500663895714156,-0.04174832686262786,0.3766821419766972,0.3364124394121421,junk
2079,0.10662410181713362,0.42943264509025963,0.6532788384151816,-0.02186955500325492,0.3552788940419772,0.3136606357443513,junk
2091,0.11708825568752904,0.4029580285529545,0.6521303268624951,0.0029789199988976577,0.33591406100969773,0.28332491822982414,junk
2102,0.12290132174841921,0.3731690014967702,0.6381338996590552,0.026584974304323532,0.3216452401856183,0.2454052558047698,junk
2113,0.13762923734452492,0.34876165532400116,0.6142707995586429,0.04149406337678963,0.3083956017648578,0.19990164846918837,junk
2124,0.1562304137785804,0.3326301685449981,0.5849001072334014,0.04646375634163288,0.2859731714268188,0.1468141272868704,junk
2136,0.16902169895571115,0.31525493057946263,0.5617249862300154,0.04460012529654281,0.24622430626034,0.08614266119402536,junk
2147,0.1736696119612509,0.291674492552508,0.5507098017803569,0.03590316006358305,0.15347695420522278,-0.008656510400505796,junk
2158,0.16979635112330116,0.272642049327533,0.5422209668017464,0.03466072918891994,0.13513132027486313,-0.004864522413346915,junk
2169,0.15894487116911074,0.254439903216183,0.5309764559864122,0.03714558076030976,0.1473617428951029,0.03305514001170742,junk
2181,0.14692823815956985,0.20645211901645943,0.4986226411830804,0.035281949715219696,0.19016822206594208,0.0899346181173936,junk
2192,0.1558430876947854,0.18824997290510956,0.4791186217548113,0.01975165029439023,0.24928190356609953,0.13733420391465917,junk
2203,0.17793337368696113,0.1944551729665286,0.4690226224921634,-0.013172589770295158,0.307376402662938,0.1600860075824499,junk
2214,0.20699870399141201,0.22920564889759962,0.4704004604105251,-0.053551354015340794,0.3440676872222581,0.1543980411336069,junk
2226,0.23451472996068304,0.2689209626713679,0.4832502557855875,-0.08461195285699973,0.350182898532378,0.12027036669571144,junk
2237,0.25350640728249907,0.2862962006369035,0.5123916217451537,-0.09952104192946583,0.29718437824653793,0.05959890060286638,junk
2248,0.25815749509200425,0.26974787081718243,0.5378600064052944,-0.10324831419758236,0.28291555742245844,0.0899346181173936,junk
2259,0.2515666020595586,0.2349973948861114,0.5374013536739435,-0.11443013100193193,0.2676275374964592,0.13354224699129094,junk
2271,0.24536620991487346,0.213484227223693,0.5247808846645564,-0.12436951693161839,0.2288978714319002,0.1525020626719228,junk
2282,0.2697836272137846,0.23210321637576087,0.5084893140800528,-0.1268543583250718,0.1606113646172625,0.14112619190181805,junk
2293,0.28683549931266017,0.2387218705100871,0.5188146397083762,-0.12436951693161839,0.07601762207610484,0.10699848640013196,junk
2305,0.29264856537355033,0.22548117327362385,0.5509391281460325,-0.129960420244825,0.0046735179557076114,0.06907879291128699,junk
2316,0.27249490980034946,0.21596834062894701,0.5800804941055985,-0.15543010559534093,-0.01774892908093223,0.04443104184560279,junk
2327,0.2399404699377783,0.24120259494753046,0.5748041079707534,-0.19021798688305278,0.00773111526146714,0.046327020307286915,junk
2338,0.21320227094006275,0.30367143860243895,0.5458920683768629,-0.2088543482236354,0.02505755008990694,0.08614266119402536,junk
2350,0.18917217972494657,0.3802044986718144,0.5174386815143233,-0.16785434309641722,-0.01774892908093223,0.10699848640013196,junk
2361,0.16979635112330116,0.42943264509025963,0.5018350900268461,-0.09206649739323278,-0.06463220465945076,0.12975029006792269,junk
2372,0.17793337368696113,0.3512457687292552,0.5263880489485936,-0.00820288662751552,-0.09418906210813033,0.15629405065908167,junk
2383,0.21513890135903763,0.29539557920867304,0.5598884955803027,0.04460012529654281,-0.09215064720568981,0.18283781125024062,junk
2395,0.25273175511490903,0.2747127086598798,0.5947667801303738,0.043978904770243056,-0.06259378975701024,0.19990164846918837,junk
2406,0.2775333236936497,0.28339863315874214,0.6108290243492017,0.001115288953807595,-0.01978732728477191,0.20748559337971548,junk
2417,0.2961376749316707,0.31029009273676517,0.6216130027088761,-0.05852105715812043,0.016903940575947376,0.19421371308413599,junk
2428,0.2721075837165545,0.34669438495946503,0.6450174500779373,-0.1697179843194437,0.053595191738065824,0.14871010574855453,junk
2440,0.20699870399141201,0.38227176903635046,0.6461659616306237,-0.17717252885567675,0.059710403048185715,0.14112619190181805,junk
2451,0.16475793723000093,0.41660879089451425,0.6165640632153978,-0.1405210267008112,0.0332111596038665,0.1259583020807638,junk
2462,0.15661773986237532,0.4348109370058642,0.5876539033458161,-0.08399074250863638,-0.023864140391052117,0.10889446486181609,junk
2473,0.18917217972494657,0.40667911520911953,0.5674600250962115,-0.03429379250433121,-0.08093942368736988,0.10510250793844785,junk
2485,0.23064146912273326,0.38268522310925773,0.5704431475743016,-0.011308948547268693,-0.11661149244616932,0.09941454148960484,junk
2496,0.2647452133204844,0.375239660829117,0.5936182685776875,-0.024975606745071693,-0.1298610974697281,0.07476675936013001,junk
2507,0.24265492732830862,0.3888904231706768,0.6353801035466405,-0.0672180223910802,-0.11355389514040981,0.03305514001170742,junk
2518,0.15933219725290568,0.3934418069404669,0.6454761028092884,-0.1150513413502953,-0.05953619245125072,0.006511379420548444,junk
2529,0.08104788107080303,0.3731690014967702,0.6122049825432548,-0.14424829896892774,0.02301915188606726,0.08424668273234123,junk
2541,0.03841661342163139,0.3595182391552104,0.5748041079707534,-0.1256119376283451,0.0046735179557076114,0.12785428054244793,junk
2552,0.01632632742945555,0.36820755262188354,0.5575933521992392,-0.09330891808995948,-0.022844941289132267,0.15629405065908167,junk
2563,0.08841025146687308,0.4116439530518169,0.5598884955803027,-0.060384688203210496,-0.0391521603170514,0.17146190941634523,junk
2574,0.16165615375567555,0.44515406676416625,0.5849001072334014,-0.04485438878238104,-0.0391521603170514,0.16766995249297703,junk
2585,0.18684822322217667,0.47783388336289034,0.6163347368497224,-0.05789984680975708,-0.022844941289132267,0.14302217036350218,junk
2597,0.14925536946630527,0.48403908342430935,0.6291845322247848,-0.09455134896462258,0.002635119751867931,0.11647837870855257,junk
2608,0.0926740131925834,0.4815583589868661,0.6135828204616165,-0.13058163059318834,0.011807928367747338,0.09751856302792072,junk
2619,0.06980907503281761,0.499760505098216,0.5922423103836345,-0.14362707844262798,-0.014691315076571872,0.07097480243676174,junk
2630,0.07562214109370788,0.5287192350407751,0.5855880863304278,-0.10014225227782916,-0.13597630877984798,-0.027616357144928303,junk
2642,0.07484431412215231,0.5419565433094277,0.5929302894806611,-0.08461195285699973,-0.17266757664056726,-0.07880789986556208,junk
2653,0.055468485520506906,0.5196164675011948,0.6083045546024627,-0.08274832181190965,-0.1696099626362069,-0.10724760785461453,junk
2664,0.01206256570374533,0.42695192065281623,0.6477712461903521,-0.08088468058888318,-0.11864989065000903,-0.07501594294219387,junk
2675,-0.008478415953250558,0.4426699533589121,0.6470832670933256,-0.0684604430878069,-0.02080652638669175,0.027367173562864413,junk
2687,-0.005763958562720208,0.47535315892544705,0.6307916965088222,-0.03864227512081109,0.09334405690454464,0.1468141272868704,junk
2698,0.02368869782552568,0.4869366509024706,0.6048627793930215,0.00608498191865083,0.18609140895966186,0.23592533243255856,junk
2709,0.07290768370317743,0.4745262507796325,0.5835222693150396,0.052675880181139216,0.2360322818439399,0.2871168751531924,junk
2720,0.12755240955792443,0.46376966694842336,0.5759507397991309,0.09243343407782151,0.2421474931540598,0.28142893976814,junk
2732,0.16746921981656573,0.4645965750942378,0.5768680452618329,0.08622132041625155,0.2329746845381804,0.24730123426645392,junk
2743,0.1876228753897666,0.4645965750942378,0.5819169847553112,0.07938799640631826,0.22278266012178033,0.21506950722645196,junk
2754,0.19227396319927192,0.4455675208370734,0.5883418824428425,0.07193345187008521,0.21360986820450176,0.19990164846918837,junk
2765,0.19614722403722168,0.36365616885209334,0.6142707995586429,0.061994055762462336,0.21768664791358028,0.22834138752203145,junk
2777,0.200023659679137,0.3661368932895367,0.6076165755054362,0.06075163506573563,0.2360322818439399,0.2965967985254036,junk
2788,0.21397692310765268,0.39799319071025707,0.5922423103836345,0.06758496925360533,0.24928190356609953,0.3553722861565646,junk
2799,0.2352925569322385,0.42240053688302615,0.5874245769801405,0.07814556553165514,0.2360322818439399,0.3705401449138282,junk
2810,0.24614086208246339,0.4157818827486998,0.5959134119587512,0.08808495146134163,0.19832183157990166,0.3458923627843533,junk
2822,0.24381690557969357,0.3992335529289788,0.6066973903184255,0.08311526867443478,0.12392011345514405,0.23782131089424266,junk
2833,0.2403277960215732,0.39385526101337415,0.6108290243492017,0.06696375890524198,0.09945926821466453,0.19421371308413599,junk
2844,0.23645453518362344,0.3901307853893985,0.6048627793930215,0.0501910286097494,0.08417124828866523,0.17714984480139762,junk
2855,0.22095196741992779,0.3620023525604645,0.5844414545020503,0.03900921180539982,0.08213283338622472,0.18473378971192472,junk
2866,0.21358959702385774,0.34504056866783617,0.5743454552394025,0.032797098143829875,0.09334405690454464,0.2112775503030837,junk
2878,0.2170755317780125,0.34090263897095324,0.565854740536483,0.02906982587571335,0.10761287772862407,0.23213337550919033,junk
2889,0.22870166389979285,0.3516592228021625,0.5612644537743557,0.022857702036207,0.10761287772862407,0.23213337550919033,junk
2900,0.24110562299312868,0.3574509687906743,0.565854740536483,0.009191043838404002,0.08620964649250491,0.22075747367529494,junk
2911,0.24342957949589855,0.35910478508230315,0.5787045359115457,-0.008824096975878874,0.05869120394626587,0.2169655167519267,junk
2922,0.22870166389979285,0.3715151852051413,0.5791631886428966,-0.029945309887851327,0.0770368378766255,0.2719490163959288,junk
2934,0.20971316138194246,0.3818583149634433,0.5580538846548989,-0.030566520236214683,0.0902864429001843,0.29849277698708776,junk
2945,0.2042874214048472,0.3797910445989072,0.5252395373959075,-0.03243015128130474,0.07397922387226516,0.28332491822982414,junk
2956,0.25389373336629395,0.3971662825644427,0.5073426822516754,-0.04858166105049756,0.03219196050194666,0.22265345213697907,junk
2967,0.2713329315489645,0.4112304989789096,0.5387791915923051,-0.08399074250863638,-0.008576103766451994,0.1468141272868704,junk
2979,0.2546683855338839,0.4401892289214688,0.5731969436867164,-0.129960420244825,-0.022844941289132267,0.08424668273234123,junk
2990,0.2128117700523022,0.4691479588640279,0.5800804941055985,-0.16847556362271698,-0.01265291687273219,0.05580694367949814,junk
3001,0.19072148406012643,0.47990454269523714,0.5507098017803569,-0.181521021650093,-0.008576103766451994,0.05580694367949814,junk
3012,0.21010048746573737,0.4674941425723991,0.5094084992670636,-0.14549071966565447,-0.1257842843634479,0.015991271728969053,junk
3023,0.23219077345791322,0.454666899408843,0.5045888861392607,-0.13989980617451145,-0.20324361649256584,-0.025720347619453528,junk
3035,0.19614722403722168,0.45963173725154044,0.5470387002052403,-0.14114223704917456,-0.23076207573740573,-0.031408314068296514,junk
3046,0.13801656342831983,0.454666899408843,0.583751595680715,-0.1324452718162148,-0.21445484001088577,0.008407357882232576,junk
3057,0.08143520715459805,0.4286057369444452,0.6101391655278665,-0.12374829640531865,-0.179801987052607,0.06149487906455051,junk
3069,0.044617005566316495,0.4455675208370734,0.6076165755054362,-0.11815739309211207,-0.12884189836780827,0.1107904433235002,junk
3080,0.04345502731493164,0.47659352114416864,0.5988965344368412,-0.10449073489430906,-0.06972820016904996,0.15060608421023866,junk
3091,0.06709461764228726,0.4914880346722608,0.6014210041835805,-0.07343013605265013,-0.021825725488611596,0.16766995249297703,junk
3103,0.12406329999980416,0.48900392126700676,0.6073872491397608,-0.0007483522692188698,0.0199615378817069,0.16956593095466113,junk
3114,0.18646089713838176,0.499760505098216,0.6202370445148232,0.0023577096505343043,0.0240383509879871,0.1600860075824499,junk
3125,0.1872355493059717,0.526651964676239,0.6392805314874327,-0.0019907729659455766,0.029134346497586304,0.15629405065908167,junk
3136,0.1496426955501002,0.5407161810907061,0.6390512051217573,0.007327412793313941,0.028115147395666465,0.16198198604413402,junk
3148,0.11282449396181873,0.5456810189334034,0.617712574768084,0.0296910362240767,0.010788729265827498,0.1600860075824499,junk
3159,0.11321182004561374,0.5258216675626138,0.6174832484024085,0.057645573145982454,-0.0014416933544122669,0.1468141272868704,junk
3170,0.12057736524564933,0.48321217527849497,0.6156467577526957,0.07876678605795491,0.0067119161595473,0.13354224699129094,junk
3181,0.11941221219029893,0.44349686150472656,0.6133516143716322,0.07876678605795491,0.02607674919182678,0.1259583020807638,junk
3192,0.12522845305515465,0.43233021256842086,0.608992533699489,0.05640314227131934,0.04646078132602611,0.12216634515739558,junk
3204,0.13879121559590987,0.4385354126298399,0.6016503305492559,0.0023577096505343043,0.06174880125202539,0.12785428054244793,junk
3215,0.15700506594617034,0.4497020615661456,0.5917836576522837,-0.012551369243995402,0.051556793534226146,0.1259583020807638,junk
3226,0.16902169895571115,0.4674941425723991,0.589947167002571,-0.017521072386775038,0.0332111596038665,0.11458240024686844,junk
3237,0.15855754508531572,0.48569628868374903,0.5936182685776875,-0.012551369243995402,0.017923139677867215,0.09941454148960484,junk
3249,0.11708825568752904,0.46666384545877393,0.5963720646901021,-0.0019907729659455766,0.00773111526146714,0.0918305965790777,junk
3260,0.09112153405343798,0.44391370454544454,0.6032556151089844,0.007948623141677295,0.00875031436338698,0.09751856302792072,junk
3271,0.06709461764228726,0.4232274450288406,0.6135828204616165,0.012297105758157179,0.02607674919182678,0.12216634515739558,junk
3283,0.059732247246217215,0.4104035908330952,0.6213836763432007,0.010433464535130712,0.05767200484434602,0.15629405065908167,junk
3294,0.08724827321548823,0.40502529891749056,0.6202370445148232,0.007948623141677295,0.09640165421030417,0.1904217250969771,junk
3305,0.1294890399768993,0.4079194774278411,0.6145001259243184,-0.007581676279152166,0.14634254379318304,0.23213337550919033,junk
3316,0.15468110944340044,0.42240053688302615,0.6099098391621911,-0.018142282735138394,0.1494001410989426,0.22265345213697907,junk
3327,0.1705710032908911,0.44391370454544454,0.6048627793930215,-0.02186955500325492,0.1371697184787028,0.20558961491803135,junk
3339,0.1872355493059717,0.4633562128755161,0.589947167002571,-0.018142282735138394,0.11372808903874396,0.19800567000750421,junk
3350,0.18064783107749158,0.4670772995316811,0.5892591879055443,-0.012551369243995402,0.0902864429001843,0.19990164846918837,junk
3361,0.16514526331379584,0.4654234832400522,0.5940788010333472,-0.005096834885698749,0.0770368378766255,0.20179762693087247,junk
3372,0.15196665205287008,0.45259962904430684,0.5970600437871286,0.0029789199988976577,0.07805603697854535,0.20179762693087247,junk
3383,0.1523539781366651,0.4339840288600497,0.5938475949433629,0.007948623141677295,0.09130565870070496,0.20748559337971548,junk
3395,0.16785654590036075,0.41371122341635297,0.5858174126961033,0.0004940786054442416,0.12595851165898372,0.22265345213697907,junk
3406,0.18026050499369656,0.3967494395237247,0.579392515008572,-0.014415010467021866,0.12901612566334408,0.21506950722645196,junk
3417,0.1771587215193712,0.3897173313164912,0.5768680452618329,-0.029945309887851327,0.12188171525130435,0.20748559337971548,junk
3428,0.16824387198415566,0.3959225313779103,0.5722796382240143,-0.03864227512081109,0.10557447952478441,0.20748559337971548,junk
3440,0.1581702190015208,0.42116017466430444,0.5626422916927175,-0.0398846958175378,0.0790752360804652,0.21317352876476783,junk
3451,0.15661773986237532,0.43646475329749307,0.5635595971554195,-0.03491500285269456,0.051556793534226146,0.22075747367529494,junk
3462,0.1473187390473304,0.4426699533589121,0.5695258421115996,-0.024975606745071693,0.030153562298106982,0.2302373970475062,junk
3473,0.13181617128363474,0.4426699533589121,0.579392515008572,-0.013793800118658514,0.0199615378817069,0.24730123426645392,junk
3484,0.12987636606069433,0.444740612691259,0.5878832297114914,-0.0057180452340621045,0.02505755008990694,0.26246909302371757,junk
3495,0.1430549773216201,0.4497020615661456,0.5883418824428425,-0.007581676279152166,0.06684481346022543,0.2643650714854016,junk
3507,0.16553258939759086,0.46045864539735487,0.5816876583896358,-0.013793800118658514,0.07805603697854535,0.2510931911898222,junk
3518,0.1872355493059717,0.47659352114416864,0.5750334343364291,-0.015657431163748573,0.07296002477034531,0.2302373970475062,junk
3529,0.19847435534395702,0.48776355904828517,0.5699844948429506,-0.011308948547268693,0.049518378631785626,0.20748559337971548,junk
3540,0.17599674326798626,0.4827987212055877,0.5709018003056526,-0.00261198331430893,0.0199615378817069,0.188525746635293,junk
3551,0.15739239202996524,0.4658369373129595,0.5743454552394025,0.006706192267014183,-0.0034800915582519475,0.1790458543268724,junk
3563,0.14421695557300504,0.4488751534203312,0.5775560243588593,0.010433464535130712,-0.011633717770812351,0.17714984480139762,junk
3574,0.13491477995399456,0.44680788305579505,0.5803098204712741,0.007327412793313941,-0.0034800915582519475,0.18283781125024062,junk
3585,0.13297814953501969,0.45053235867977076,0.584670780867726,0.0017364993021709509,0.013846326571587018,0.19421371308413599,junk
3596,0.13879121559590987,0.4559106505953754,0.5906351460995973,-0.007581676279152166,0.06174880125202539,0.22265345213697907,junk
3607,0.1473187390473304,0.471215229228564,0.5954547592274002,-0.006339255582425458,0.08519044739058508,0.22834138752203145,junk
3619,0.16049417550429063,0.48776355904828517,0.5954547592274002,-0.0013695626175822232,0.09538245510838432,0.21886149521361084,junk
3630,0.1794826780221411,0.4943822131826114,0.5913250049209327,0.0029789199988976577,0.0902864429001843,0.19990164846918837,junk
3641,0.19537257186963167,0.4827987212055877,0.5754920870677799,0.004221350873560769,0.07194082566842548,0.17714984480139762,junk
3652,0.18878485364115155,0.46625039138586666,0.5704431475743016,0.003600140525197416,0.04747998042794595,0.1600860075824499,junk
3663,0.1736696119612509,0.4472213371287023,0.5683792102832221,0.0023577096505343043,0.02505755008990694,0.1525020626719228,junk
3675,0.1581702190015208,0.4397757748485616,0.570672473939977,0.0017364993021709509,0.012827127469667179,0.1600860075824499,junk
3686,0.15196665205287008,0.43687820737040034,0.5784752095458701,0.004221350873560769,0.013846326571587018,0.17525386633971352,junk
3697,0.15468110944340044,0.4232274450288406,0.5835222693150396,0.007948623141677295,0.039326370913986386,0.188525746635293,junk
3708,0.16475793723000093,0.41660879089451425,0.584670780867726,0.0004940786054442416,0.04747998042794595,0.188525746635293,junk
3720,0.17870802585455117,0.4244678072475622,0.5839809220463906,-0.00944531750217863,0.04136476911782607,0.18473378971192472,junk
3731,0.1872355493059717,0.4331571207142353,0.5807684732026249,-0.016899851860475282,0.017923139677867215,0.1790458543268724,junk
3742,0.18258446149646645,0.4645965750942378,0.5943081273990228,-0.016899851860475282,-0.011633717770812351,0.16766995249297703,junk
3753,0.16746921981656573,0.4658369373129595,0.6101391655278665,-0.007581676279152166,-0.029979351701171993,0.15819002912076577,junk
3765,0.1542937833596055,0.4534265371901214,0.6223009818059027,0.00981225418676736,-0.02692173769681163,0.16577394296750225,junk
3776,0.15119199988528015,0.44804824527451675,0.6307916965088222,0.025963763955960173,-0.007556904664532145,0.18662976817360888,junk
3787,0.1558430876947854,0.45508035348175024,0.6365286150993268,0.035281949715219696,0.020980736983626742,0.1961096915458201,junk
3798,0.16320545809085543,0.46625039138586666,0.6376752469277043,0.04460012529654281,0.10047846731658436,0.20179762693087247,junk
3809,0.1666945676489758,0.47949108862233,0.6298743910461201,0.057645573145982454,0.1381889342792235,0.2036936053925566,double
3821,0.1666945676489758,0.5014143213898449,0.6165640632153978,0.08187283779977167,0.1626497628211022,0.188525746635293,double
3832,0.18452109191544133,0.593668803133127,0.601191677817905,0.12349403291948043,0.17793779944570232,0.14871010574855453,double
3843,0.18955950580874148,0.6437238576973866,0.5977499026084637,0.20363036123914477,0.1973026324779818,0.10131051995128897,double
3854,0.18684822322217667,0.6838526255440622,0.6005036987208785,0.33097882870347,0.22278266012178033,0.07097480243676174,double
3866,0.1829717875802614,0.7186031014751332,0.6078459018711116,0.499948440397822,0.24928190356609953,0.03874307539675977,double
3877,0.18839752755735664,0.7032985228419445,0.6115170034462282,0.7061908358409578,0.28393475652437833,-0.029512335606612383,double
3888,0.18452109191544133,0.6366917494901531,0.6140414731929675,1.1689936547667243,0.4164309737459744,-0.2039427579108298,double
3899,0.16553258939759086,0.524167851270985,0.6105996979835263,1.3845542766808652,0.5214087484213313,-0.27030219045251785,double
3911,0.1709583293746861,0.35331303909379136,0.5940788010333472,1.5566299808287796,0.6406553773179694,-0.31770180731357406,double
3922,0.18219713541267143,0.19528208111234302,0.5637889235210949,1.6796297926517063,0.7405370896893239,-0.35372549127694425,double
3933,0.22521572914563812,-0.08809662928401871,0.4584679704981645,1.76473582411415,0.7772283408514423,-0.3897491441765239,double
3945,0.29962360968582546,-0.1977263489928363,0.40454431925117534,1.8212661184842613,0.7415562887912437,-0.4276687755377876,double
3956,0.36705644591373765,-0.280878063196538,0.36003056789411647,1.8641297343006966,0.6590010112483291,-0.46558843796284194,double
3967,0.38721010148693863,-0.38926403171882307,0.31987589720920057,1.9038872983753152,0.5611576135878101,-0.47506836133505315,double
3979,0.3647324894109679,-0.5022013840108983,0.27604824522485927,1.9510994069861671,0.38687411629729473,-0.4636924595011578,double
3990,0.336054485190312,-0.6002476117426924,0.24025265521208636,1.944887293324597,0.3308180655000985,-0.5129880237601074,double
4001,0.32713963565509635,-0.7065663099004413,0.22166594124651903,1.9125842737862118,0.3104340166672983,-0.5774514467763208,double
4013,0.3399309208322272,-0.7673779482959104,0.19688553568340492,1.8690994374434766,0.3104340166672983,-0.6286429894969545,double
4024,0.32868893999027643,-0.7946828619468406,0.11772282614195057,1.8498418657545304,0.29208838273693866,-0.6817305417430631,double
4035,0.3244283530685316,-0.8476354839892615,0.0718312368665298,1.8846297368643057,0.24010909495022012,-0.7746337659397008,double
4047,0.34109289908361223,-0.9328544685574993,0.013777831313073021,1.9740842509432297,0.1626497628211022,-0.9168325233314977,double
4058,0.34186755125120205,-1.05117350173299,-0.047946675815500314,2.0958417947384755,0.055633589941905516,-1.0552391684809728,double
4069,0.3007855879372105,-1.1711429622322986,-0.0954454293749582,2.3635841368048203,-0.18693639746464671,-1.2581093919656146,double
4081,0.21978998916854284,-1.2973176227930265,-0.1300925078350448,2.508326514379192,-0.2542037218759654,-1.3377407048028822,double
4092,0.1353021060377895,-1.461140326762987,-0.1656587714821421,2.6213872456105243,-0.2613381322880051,-1.388932247523516,double
4103,0.07872074976406761,-1.6588865985182033,-0.21200901348891388,2.6654932923016226,-0.22362766532536602,-1.396516192434043,double
4115,0.019812262183610384,-1.9712240388571245,-0.34761984402409646,2.635675124334627,-0.1624755522241672,-1.3699724007790932,double
4126,0.035702156031101044,-2.0328625853984077,-0.4318314930590292,2.558644684909797,-0.09622746031196999,-1.3225728460456185,double
4137,0.08220985932218798,-2.009282147371453,-0.5206315491317804,2.4698113811792366,-0.05036336713677049,-1.275173260248353,double
4149,0.11011321137525391,-1.9025499951407967,-0.6098902579358827,2.424462903613475,-0.056478578446890366,-1.2486294685934032,double
4160,0.0930613392763784,-1.8016095888986525,-0.6929552751424378,2.643750879219224,-0.21139724270512622,-1.3074049562245644,double
4171,0.03647680819869098,-1.8140199890214903,-0.7723473110495677,2.8574477784868466,-0.2735685549082449,-1.364284465394041,double
4183,-0.031343354113016336,-1.9472301467572624,-0.8485287778372408,3.0419477303137734,-0.2898757572375632,-1.396516192434043,double
4194,-0.09606490775436374,-2.1668996512799943,-0.9198887517728022,3.123947710034401,-0.262357331389925,-1.3794523241513046,double
4205,-0.1979888142638221,-2.4585542210701217,-1.0580240520547242,3.0605840916543565,-0.19407080787668643,-1.3225728460456185,double
4217,-0.18597535605824678,-2.4300089452004703,-1.1502658833369164,2.8791902017471824,-0.10030425671964936,-1.2524214565805623,double
4228,-0.1290066737007299,-2.2951449711730687,-1.2666020208095055,2.6704629852664663,-0.021825725488611596,-1.1746861222049787,double
4239,-0.054208292272782024,-2.015073893359965,-1.3948687684701462,2.5226143931032947,-0.016729713280411552,-1.1424544262287677,double
4251,-0.0135168298465508,-1.73376584229595,-1.5245133540491485,2.682887232945479,-0.2970101676496029,-1.4723555172841518,double
4262,-0.0224285045778008,-1.5533948085062688,-1.6553045714565282,3.001568955890792,-0.5171577581153177,-1.7738169935418555,double
4273,-0.08792471038673813,-1.508714656889803,-1.7785223796236906,3.380507929958304,-0.7220172451620293,-2.0601104557233425,double
4285,-0.40494158556102966,-2.028314590596428,-1.9457990458651786,3.6861441948762406,-0.8402446415595458,-2.2535007558357725,double
4296,-0.5522080423062246,-2.2988694467970445,-1.9914613087749238,3.7774623501781908,-0.8300526338417465,-2.3141719734182926,double
4308,-0.5859244604201806,-2.324517155188535,-2.0430898166408493,3.6097351286467565,-0.7108060216437093,-2.2459168109252454,double
4319,-0.5181042981084735,-2.1445595754717615,-2.122481852547979,3.2935382572728336,-0.5497722128697569,-2.088550194776185,double
4330,-0.4557098757738614,-1.9455763304656337,-2.225507662189846,3.018341676008348,-0.42033357625531953,-1.8743041005214391,double
4342,-0.4479570044900308,-1.752381442480207,-2.3312891476684356,2.912114431633931,-0.329624622404042,-1.388932247523516,double
4353,-0.48942629388781755,-1.6427517227713897,-2.398750573387514,2.9630538125128996,-0.329624622404042,-1.2201897295405602,double
4364,-0.56267219617662,-1.6080012468403184,-2.452443018544519,2.940690178904201,-0.30720217536740213,-1.1727901437432948,double
4376,-0.6936646077944948,-1.63365234419962,-2.52426352493574,2.805887197437451,-0.21853165311716596,-1.250525478118878,double
4387,-0.7021921312459153,-1.709771950196088,-2.5582226242988,2.5723113532855364,-0.07482421237725,-1.3282607814306708,double
4398,-0.6684725383279936,-1.729627912599067,-2.6103097848960766,2.2505235684204705,0.07194082566842548,-1.2656933368761416,double
4410,-0.6405691862749276,-1.6758483824108317,-2.667675211352507,1.8871145782577594,0.18711062476018256,-1.019215608772765,double
4421,-0.6498713618939381,-1.5471896084448498,-2.7227454944278735,1.5522814982122999,0.26456992349209885,-0.6438108482542182,double
4432,-0.6665359079090187,-1.3635109420719107,-2.772308185278411,1.0857512543493706,0.3634325202545376,0.0406390538584439,double
4444,-0.6564590801224184,-1.2125120922976957,-2.810169592306572,0.9416300871233618,0.38177810408909474,0.2435092773430857,double
4455,-0.6378579036883628,-1.1732102325968348,-2.8390797521761537,0.8242210259445959,0.3705669306665773,0.3534763076948804,double
4466,-0.6572337322900083,-1.1450817997679008,-2.884283362354548,0.6906605465980646,0.33693327681021834,0.36106022154161693,double
4478,-0.6758380835280293,-1.148802886424066,-2.9150318925981513,0.511751467550535,0.2951459800426982,0.30797270035929897,double
4489,-0.6738982783050889,-1.1980344218103218,-2.9522034408049773,0.2912212442729785,0.24928190356609953,0.27574097331929703,double
4500,-0.671574321802319,-1.2356790762517433,-2.977444378823751,0.04894860791302269,0.19424503517222225,0.31934860219319433,double
4511,-0.6944392599620848,-1.2538812223630933,-2.977215052458076,-0.18773313531166297,0.13309292207102344,0.4387955248534097,double
4523,-0.7382325058626413,-1.2658781684130243,-2.9542692578203655,-0.5908996488372472,0.09538245510838432,0.7914484506403753,double
4534,-0.7638119014129374,-1.280359227868209,-2.9205376050986716,-0.7729147898045301,0.13920813338114332,0.9582949280340657,double
4545,-0.7568336822966968,-1.3175904282367235,-2.893232729788818,-0.9530661674135497,0.19934103068182146,1.091013762053651,double
4557,-0.6832004539240993,-1.4429381806516368,-2.8925447506917914,-1.1369449088921133,0.24520510715842017,1.1915008690332347,double
4568,-0.6370832515207729,-1.5277471001147782,-2.8897909545793774,-1.3276570456261652,0.24622430626034,1.2654442775492403,double
4579,-0.6297177063207372,-1.6282740522840153,-2.8595029567914336,-1.5214751730344154,0.19832183157990166,1.3090519064231378,double
4591,-0.6576210583738032,-1.729627912599067,-2.8044326737160667,-1.732687078239539,0.13920813338114332,1.3033639399742947,double
4602,-0.6789366921983891,-1.8169175564996518,-2.7445446572372063,-1.987383972456444,0.10761287772862407,1.2464844308048182,double
4614,-0.6587862114291537,-1.881040216446189,-2.6883258626091537,-2.532808052696756,0.15143855600138312,1.2673402560109246,double
4625,-0.6053034638257916,-1.913306578972006,-2.635321396549175,-2.6961869442807567,0.201379445584262,1.4967541158315627,double
4636,-0.5487221075520698,-1.9517815305270525,-2.577497317361394,-2.7371869392300385,0.2482627044641797,1.8531989985418966,double
4648,-0.5103546016286084,-2.276942825061719,-2.442576345647547,-2.721656639809209,0.2798579601166989,2.2361877350347616,double
4659,-0.47857481393362716,-2.4531759291545168,-2.3785566951379096,-2.7868838892343435,0.27883876101477906,2.5035213815356165,double
4671,-0.4270318715532055,-2.5954854654620587,-2.310867822777465,-3.0005807986799033,0.2329746845381804,2.6059044669768845,double
4682,-0.39874119341634456,-2.643473249661782,-2.2300979489519728,-3.3130500924476176,0.1504193402008624,2.6059044669768845,double
4693,-0.39874119341634456,-2.557013902874823,-2.124316463473383,-3.6435348425456437,0.06888321166406511,2.5604008907050932,double
4705,-0.4146279124598697,-2.409739528724584,-1.9942151048873387,-4.033034728407234,0.05767200484434602,2.48266555632951,double
4716,-0.4312924584749502,-2.2306088571536242,-1.852867355761651,-4.002595339913938,0.16876497413122207,2.5073133384589847,double
4727,-0.3855625821554187,-2.0473436448535924,-1.7202415274288672,-3.84977720745497,0.3328564637039382,2.583152694372884,double
4738,-0.08521342780017332,-1.9108258545345629,-1.4939941501712206,-3.64105000115219,0.46229505022257306,2.6570960407613087,double
4750,0.04616630990149645,-1.8851747571752613,-1.4045061150014428,-3.4397773292077067,0.46942946063461277,2.6457201389274134,double
4761,0.11747558177132396,-1.858700140637956,-1.3267193636540415,-3.259004965164925,0.3399908741159779,2.5111053264461436,double
4773,0.1415056729864402,-1.8094686052517004,-1.2404437773280295,-3.09748985729506,0.1147472881406638,2.2589395387025526,double
4784,0.10778608006851849,-1.7196982369136724,-1.125712924415169,-2.9558535416404412,-0.14107232098804803,1.9119744551092668,double
4795,0.03841661342163139,-1.6415113605526677,-0.9850550341108166,-2.6166716634624736,-0.45702482741743794,1.2673402560109246,double
4807,-0.017002764600705548,-1.6034498630705283,-0.847150939918879,-2.3843384028542673,-0.44377520569527834,1.1156615441831261,double
4818,-0.03754374625770143,-1.6208251010360637,-0.7305854760806146,-2.155732404336242,-0.35510466674644137,1.054990078090281,double
4829,-0.008865742037045569,-1.9563295253290323,-0.5614760786380316,-2.014096088681623,-0.24401171415816614,1.026550307973647,double
4841,0.04616630990149645,-2.1557296133758777,-0.5201728964004294,-2.0463991082200086,-0.14005312188612817,1.026550307973647,double
4852,0.10236034009142332,-2.186345548577876,-0.4944733056503044,-2.261338438362295,-0.06870900106713011,1.0948057189770193,double
4863,0.10895123312386897,-1.9985289525080547,-0.46166083811562175,-2.5557928966538186,-0.04424815582665059,1.2256286366625022,double
4874,0.0853084679925478,-1.6642648904338078,-0.4049852704805267,-2.7837778273145903,-0.04526737162717128,1.3393876239376648,double
4886,0.06631996547469733,-1.3436515907011213,-0.3281158245958272,-2.729111184345442,-0.01265291687273219,1.316635820269874,double
4897,0.06128155158139709,-1.1599729243281824,-0.2496410941513993,-2.516656542927563,0.036268756909626026,1.2161486511627095,double
4908,0.07717144542888774,-1.1397035078522963,-0.18332817998500736,-2.3203535741258596,0.08824804469634459,1.1213494795681784,double
4920,0.19498524578583673,-1.1566652917449247,-0.08580808284366134,-2.2091566367866,0.11576650394118447,1.0682619583858604,double
4931,0.24653136297022393,-1.0892316102473185,-0.04680004398712288,-2.166293010792228,0.09436325600646447,1.075845872232597,double
4942,0.27094560546516955,-0.9845667283811986,-0.013987576452440129,-2.143929377183529,0.020980736983626742,1.111869556195967,double
4954,0.27172025763275953,-0.8410168298549353,0.020661381731955343,-2.11783848148465,-0.09520826121005015,1.111869556195967,double
4965,0.2484679933891988,-0.6784344881036966,0.0660943182760251,-2.078080917410031,-0.23789650284804625,1.0360302313458583,double
4976,0.20583672574002715,-0.5439839681492029,0.12689964021758754,-1.8724597628490678,-0.484543269963677,0.7630087115875323,double
4988,0.14228032515403016,-0.4835857838266413,0.20537437066201547,-1.7084598135857498,-0.5018697381893185,0.6871693246098423,double
4999,0.050042745543411746,-0.5212338272358735,0.2907345312496344,-1.5761418261815001,-0.3917959179085598,0.6814813892247898,double
5010,-0.07901303565548813,-0.6982938394744864,0.4052341780725106,-1.5419751654200882,-0.17776357215016647,0.7042331928925806,double
5022,-0.031343354113016336,-0.7648972238584668,0.4102812378416802,-1.622111503917689,0.06684481346022543,0.7421528863814256,double
5033,0.09383599144396833,-0.6490623040882303,0.3905478920477355,-1.8035052411558168,0.25335871667237975,0.7933444291020595,double
5044,0.2403277960215732,-0.3487218097992402,0.37104387261946614,-2.0358385017640224,0.312472414871138,0.8445359718226932,double
5056,0.3259776574037115,0.019048977019544718,0.37104387261946614,-2.1998384510273405,0.22278266012178033,0.876767636735114,double
5067,0.32713963565509635,0.34048918489804597,0.4201479107386525,-1.9538385220433951,-0.17266757664056726,0.808512287859323,double
5078,0.26397056115289447,0.4385354126298399,0.480496459673173,-1.6438539271780246,-0.3000677649553624,0.7781765703447958,double
5090,0.16746921981656573,0.2974662385410199,0.5130796008421801,-1.4102782356951558,-0.30720217536740213,0.8028243524742706,double
5101,0.04190254817578614,0.13198632931162022,0.527534680776971,-1.343808555395358,-0.19712840518244595,0.850223876143955,double
5112,0.0953852957791482,0.31153045495548687,0.5128502744765048,-1.4307782280808283,-0.03711376211321172,0.8672877133629027,double
5124,0.19731237709257207,0.5866366949258934,0.4954101923393148,-1.5736569746101103,0.06888321166406511,0.8312640915271138,double
5135,0.2984616314344406,0.8791147838940248,0.47705468446373184,-1.6618689153232613,0.052575992636145985,0.7630087115875323,double
5146,0.35194437903780257,1.1285733154729407,0.45869729686384014,-1.627702417408832,-0.09622746031196999,0.6757934227759469,double
5157,0.3341146799673715,1.2547479760336686,0.47223507133592896,-1.2003085170942216,-0.6262122791025517,0.46913127343172756,double
5169,0.23102879520652828,1.215449505300618,0.5380893327709698,-0.9033692174092445,-0.8269950198373862,0.40466785041551423,double
5180,0.06283085591657704,1.0851335260751966,0.6349214508152897,-0.6704148176982301,-0.8514558650778657,0.39329194858161887,double
5191,-0.1944997047057018,0.8753936972378598,0.7666299736853713,-0.5536269363340183,-0.6924603877133496,0.40466785041551423,double
5202,-0.1894644656163671,0.8667043837711866,0.7755793411196418,-0.5436875402263954,-0.42542957176491875,0.4008758624283554,double
5214,-0.1053639085694087,0.9407567194031188,0.7556166689600214,-0.6020814656415967,-0.15534114181212746,0.38381202520940766,double
5225,0.008573456145624957,1.082239347564846,0.7184451207531959,-0.6697936073498669,0.030153562298106982,0.37433210183719645,double
5236,0.10158568792383339,1.2650911057919705,0.6847134680315022,-0.6896723893871762,0.08926724379826444,0.36106022154161693,double
5247,0.14460428165680003,1.423122063773419,0.6730121842091261,-0.4834299837661041,-0.07992022458545006,0.29849277698708776,double
5258,0.1294890399768993,1.5054468698313062,0.6803543873593593,-0.2802937011324036,-0.1818403852564467,0.2454052558047698,double
5270,0.07639679326129781,1.4818664318043517,0.6934335091000973,-0.08026347024051983,-0.22872367753356604,0.1904217250969771,double
5281,0.002760390084734782,1.3623104253779499,0.7143134867224197,0.06572132803057885,-0.20120521828872617,0.14302217036350218,double
5292,-0.13791834843197992,1.0416971256452632,0.7608949348191755,0.12597888449087025,-0.08909304989993026,0.12216634515739558,double
5303,-0.12319360763983973,1.0036390171309344,0.7537801783103087,0.08994858250643169,0.08824804469634459,0.13354224699129094,double
5315,-0.041032855815821806,1.0896849098449868,0.7253286711720782,-0.00820288662751552,0.2676275374964592,0.1600860075824499,double
5326,0.06980907503281761,1.2448216893160846,0.6842548153001514,-0.09889983158110247,0.37872054018053686,0.15629405065908167,double
5337,0.1601068494204957,1.3916826093934163,0.6445587973465865,-0.12126345501186522,0.37973973928245675,0.10320649841297308,double
5348,0.1976997031763671,1.488485085938678,0.6211543499775253,0.14213039426006305,0.1014976664185042,-0.02192839069608529,double
5360,0.18374643974785132,1.524889378161378,0.619088532962137,0.3924788058604881,-0.06259378975701024,-0.029512335606612383,double
5371,0.13840388951211485,1.4988282156969799,0.6360680826436671,0.6726453956058454,-0.17062916173812676,0.006511379420548444,double
5382,0.07755877151268276,1.4169168637119998,0.6636041640435049,0.9453573593914784,-0.19814762098296662,0.052014955692339264,double
5393,-0.030956028029221327,1.1786283700372004,0.7225748750596634,1.1795542612227106,-0.14107232098804803,0.07287078089844587,double
5405,-0.053433640105192096,1.0437643960097993,0.7411615890252305,1.3603270120270758,-0.01978732728477191,0.05959890060286638,double
5416,-0.044518790569976555,0.9039389731075117,0.7436841790476613,1.482084555822322,0.1341121211729433,0.015991271728969053,double
5427,-0.0022780238085653715,0.7963765237632302,0.7225748750596634,1.5442057433277032,0.2818963583205386,-0.054160117736087234,double
5438,0.055081159436711984,0.769488453153018,0.6854033268528376,1.5597360427485327,0.3827973198896154,-0.13189538998408937,double
5450,0.10236034009142332,0.7893444155559968,0.6411170221371454,1.6833570649198226,0.3756629261761765,-0.370789328495892,double
5461,0.1310415191160448,0.8261621618516038,0.5966013910557777,1.9424024417532075,0.2941267809407784,-0.5565956215702141,double
5472,0.13452745387019957,0.8646371134066505,0.5502511490490058,2.335008389534551,0.20749465689438187,-0.706378323872538,double
5484,0.08802292538307815,0.6619293927765473,0.44171774718230994,2.789114467141959,0.14838094199702273,-0.8220333517369663,double
5495,0.055081159436711984,0.3640696229250006,0.375404833015918,3.234523426847361,0.12493931255706389,-0.9376883485376041,double
5506,0.03299087344453614,0.01987588516535924,0.29578159101880397,3.6035230149851865,0.12901612566334408,-1.0571351780064477,double
5517,0.01632632742945555,-0.342103155664914,0.2117992683495468,3.855113847282338,0.1371697184787028,-1.180374088653822,double
5529,-0.011189698539815373,-0.7127715099618604,0.1301120890613531,3.9942653215435033,0.12086249945078369,-1.297925032852353,double
5540,-0.03638176800631649,-1.0255224043736884,0.05553966628202622,3.997371383463257,0.027095948293746622,-1.4799394311308882,double
5551,-0.06351046789179249,-1.2882182442212569,-0.01834665712458311,3.90915929008106,-0.010614518668892504,-1.4875233760414153,double
5563,-0.10691638770855415,-1.5252629867095242,-0.1014116743311385,3.791750228902294,-0.0055185064606924645,-1.419267965038043,double
5574,-0.1689234839593712,-1.8239496647068851,-0.2728162151547852,3.6525987546411285,0.040345570015906225,-1.3282607814306708,double
5585,-0.15303359011188059,-1.859940502856678,-0.37309010840854595,3.517174552648079,0.10047846731658436,-1.2600053704272987,double
5597,-0.1038146042342288,-1.8156771942809298,-0.49608046993434163,3.427720028391219,0.14022733248306316,-1.2201897295405602,double
5608,-0.036769094090111504,-1.763964934457231,-0.6383436447984222,3.418401852809896,0.1147472881406638,-1.2050218707832965,double
5619,-0.0015001968370099011,-1.7759618805071617,-0.7757890862590089,3.4948109190393803,-0.0055185064606924645,-1.23346160983614,double
5630,-0.058472053998492333,-1.9302683628646344,-0.8905180594475606,3.7109926800563295,-0.34185504502428177,-1.3585964989451982,double
5642,-0.17628585435544128,-2.122222888631339,-0.9843670550137902,3.7078866181365764,-0.4121799500427591,-1.3775563456896207,double
5653,-0.2972014381867156,-2.250051365483696,-1.0605466420771543,3.635826034523572,-0.3989303283205995,-1.3434286401879345,double
5665,-0.4146279124598697,-2.1677265594258084,-1.2168081238689838,3.5426442379985956,-0.33370141881172133,-1.303612999301196,double
5676,-0.41385326029227965,-1.9952179309569862,-1.3010197729039163,3.4786594092701875,-0.2542037218759654,-1.3301567598923552,double
5687,-0.43439424194927556,-1.9803268063967048,-1.3950980948358216,3.4786594092701875,-0.16043715402032752,-1.424955931486886,double
5699,-0.43245761153030066,-2.0593405909035236,-1.494684008992556,3.5022654635756134,-0.030998550803091825,-1.534922961838681,double
5710,-0.3886643656297441,-2.1044341965928965,-1.5938093906936306,3.4774169885734607,0.10353608132094472,-1.6088663082271055,double
5721,-0.3495222075386928,-2.1412519428885037,-1.6975250591568325,3.282356440468484,0.20443704289002151,-1.5709466458020511,double
5732,-0.32549211632357655,-2.120979137444807,-1.8012388478957255,3.1605992121892665,0.14634254379318304,-1.5254430384664697,double
5744,-0.3223935076532167,-2.0241766608995455,-1.921704739674782,3.0661749949675627,0.03830717181206654,-1.5235470600047853,double
5755,-0.48477520607831226,-1.796644751055955,-2.137395585214121,3.036356827000567,-0.07584341147916984,-1.5974904063932103,double
5766,-0.6142183133610072,-1.7527948965531142,-2.194531685304876,3.061826512351083,-0.15941795491840766,-1.7169373601172162,double
5778,-0.7432709197559416,-1.7544487128447432,-2.237210825736531,3.091023469969715,-0.17368677574248712,-1.8060486895180665,double
5789,-0.8316320637246446,-1.7709970426644641,-2.289527312699483,3.0717658982807694,-0.09622746031196999,-1.8250085362624893,double
5801,-0.8327940419760297,-1.7527948965531142,-2.3556109005001993,2.9841750152469357,0.04544158222410627,-1.7832968858502758,double
5812,-0.7769873378698977,-1.7573462803229047,-2.430185203003835,2.672947836837856,0.29820359404705854,-1.5690506673403668,double
5823,-0.7165295459542605,-1.7565159832092794,-2.5040715264104443,2.461114415946277,0.33183726460201834,-1.4097880727296224,double
5835,-0.679711344365979,-1.6845343069096939,-2.5729089103235756,2.221947810972265,0.2859731714268188,-1.2467334901317193,double
5846,-0.7583861614358423,-1.7763753345800688,-2.702092963446918,1.962281223790517,0.19118742116786192,-1.0685110798403428,double
5857,-0.8653484818386008,-1.8131930808756758,-2.725728616905964,1.6603722209627603,0.08926724379826444,-0.8618489926237048,double
5869,-0.9591353657843993,-1.7949909347643258,-2.726645922368666,1.3118724827194974,0.0240383509879871,-0.6172670876630592,double
5880,-1.0308319637380217,-1.7590000966145334,-2.7215969828751874,0.9478422109628681,0.02505755008990694,-0.304429895954204,double
5891,-1.0738505574709882,-1.6390306361152245,-2.725040637808937,0.6005847712810954,0.09538245510838432,0.053910965217814036,double
5903,-1.0447852271665374,-1.4131525425632632,-2.746837920893961,0.11976676065136391,0.307376402662938,0.5506585336668887,double
5914,-0.9618498231749294,-1.1934830380405317,-2.782174858175383,0.07441829326353862,0.3532404958381375,0.6321858249658402,double
5925,-0.8765872878765861,-1.053240772097526,-2.8152166520757413,0.14275160460842642,0.33183726460201834,0.6170179662085765,double
5936,-0.8056653420905535,-1.126462810615833,-2.828295773816479,0.25767580403786616,0.26049312708441946,0.5316987179862568,double
5948,-0.8180693011838893,-1.282013044159838,-2.810398918672247,0.3365697320166766,0.1708033890336626,0.4065638288771984,double
5959,-0.8409342393436552,-1.411085272198727,-2.7828628372724094,0.30737275404217135,0.09232485780262481,0.2890128536148765,double
5970,-0.8924771817240769,-1.4987883701722189,-2.753721471312844,0.1551758522874391,0.04747998042794595,0.2454052558047698,double
5981,-0.9649484318452893,-1.5827669925217351,-2.7328414936905214,-0.07715740832076666,0.052575992636145985,0.3155566142060355,double
5993,-1.0083543516620508,-1.6572327822265747,-2.720221024681134,-0.6536420568689285,0.22584027412614066,0.6966492479820535,double
6004,-0.9905278273955854,-1.708941653082463,-2.716320596740342,-0.9754298010222487,0.33591406100969773,0.9545029400469067,double
6015,-0.905265292097242,-1.761480821051977,-2.725269964174613,-1.2953539446642883,0.4031813520238147,1.2730282224597673,double
6027,-0.7638119014129374,-1.9414384007687506,-2.7436254720501956,-1.6034751527550424,0.4164309737459744,1.6332649067745164,double
6038,-0.7576115092682523,-2.007214877006917,-2.739725044109403,-1.9091112650039335,0.38177810408909474,1.9840218230360074,double
6050,-0.7746633813671279,-2.0543757530608264,-2.730775676675133,-2.2265505672525197,0.30024199225089826,2.2665234525492886,double
6061,-0.8234950411609846,-2.1019500831876425,-2.7039294540966305,-2.5514444140373387,0.18507220985774203,2.4371619489939285,double
6072,-0.8889880721659565,-2.180136959548647,-2.648859171021264,-2.871989930874724,0.08009443518238503,2.497833446150564,double
6084,-0.9413088415179336,-2.2963853333917905,-2.5701551142111607,-3.4782924725855984,0.07499842297418499,2.573672771000673,double
6095,-0.9273555780894177,-2.3977391937068426,-2.477683956563293,-3.7379590597673467,0.17793779944570232,2.736727105088251,double
6106,-0.8180693011838893,-2.433319966751539,-2.3732803090030647,-3.9137620361833774,0.2880115696306585,3.032500490641949,double
6118,-0.5661613057347403,-2.2881128629658356,-2.1472622581110934,-3.9659438377590726,0.3471252845280176,3.3699855266078607,double
6129,-0.4902009460554075,-2.195444927149646,-2.0072942266280767,-3.8920196231009787,0.3328564637039382,3.5861276303880816,double
6140,-0.4227681098274952,-2.1681400134987157,-1.8526380293959757,-3.7416863320354636,0.26456992349209885,3.5861276303880816,double
6152,-0.34138201017106723,-2.176829326965389,-1.7021134661946509,-3.598186375157818,0.17488018544134196,3.4041132321095464,double
6163,-0.27394917394315493,-2.1507647755331805,-1.5607675967932724,-3.519292457356944,0.07805603697854535,3.1329875976215327,double
6174,-0.2506969096995942,-2.055616115279548,-1.430205705751568,-3.410580371589074,-0.07584341147916984,2.6343442370935177,double
6186,-0.2421693862481737,-1.93399283848861,-1.312034957353575,-3.278262536853871,-0.0982658585158097,2.465601719110562,double
6197,-0.23907077757781386,-1.9215824383657718,-1.2037290021282459,-3.107429253402683,-0.07074739927096982,2.365114612130979,double
6208,-0.28712461040011517,-2.338581371603002,-1.0174088489141484,-2.972626261757997,0.005692717057627452,2.3556346887587676,double
6220,-0.27162204263641954,-2.662088849846039,-0.9646337092198455,-2.9769747443744774,0.11678570304310432,2.4599137526617194,double
6231,-0.15535754661465043,-2.7919879860307435,-0.9421465673134861,-3.1844595299805305,0.2105522542001414,2.660887997684677,double
6242,-0.016228112433115612,-2.600863757377663,-0.9205786105941375,-3.559671231779926,0.18507220985774203,2.865653951120678,double
6253,0.0825971854059829,-2.103190445406364,-0.8661963066157974,-3.961595355142593,-0.0034800915582519475,2.941493275970786,double
6265,0.13414012778640455,-1.4416978184329152,-0.7494015164118574,-4.109443794636718,-0.5864634807304762,2.4200981117749807,double
6276,0.11282449396181873,-0.8352250838664232,-0.5782263019538862,-3.664656045279679,-0.7801117442588676,1.9953977248699026,double
6287,0.04577898381770144,-0.4848261460453629,-0.39534792394922985,-2.996853526411787,-0.8320910320455863,1.599137232336621,double
6299,-0.0046019803113352626,-0.6221742334780179,-0.10324628525654234,-2.310414178018237,-0.7638045085323477,1.2711322129342926,double
6310,-0.02475563588453614,-0.975880803882336,-0.00022047561467568996,-1.7736870630108845,-0.6160203381791557,1.0417181977947014,double
6322,-0.037931072341496445,-1.3271032608814004,0.06884811438843964,-1.4885509431476664,-0.41116075094083926,0.9393350812896432,double
6333,-0.009640394204635503,-1.5244360785637097,0.10211923465447341,-1.4810963986114334,-0.17572517394632678,0.963982863419118,double
6344,0.06050689941380715,-1.468589278010938,0.10097072310178712,-1.6898234522451674,0.040345570015906225,1.0701579368475447,double
6355,0.15119199988528015,-1.1926561298947171,0.08720362226402267,-2.256368735219515,0.18303381165390234,1.1801249671993392,double
6367,0.23916581777018825,-0.8712159220162161,0.08444982615160793,-2.375020217095008,0.08213283338622472,1.0985976759003877,double
6378,0.27675867152605976,-0.6387225632977391,0.10097072310178712,-2.361974769245568,-0.05545937934497052,0.963982863419118,double
6389,0.2081638570467625,-0.28666980918504975,0.17600367833677388,-2.2936414579006805,-0.16451395042800687,0.7990323955509024,double
6401,0.1709583293746861,-0.1650431434263013,0.2517264923930959,-2.201702092250367,-0.2134356409089659,0.6378737603508926,double
6412,0.136854585176935,-0.12284710521508962,0.31345099952166927,-2.072490003918888,-0.16553316622852754,0.5468665767435203,double
6423,0.14034051993108973,-0.02728499088854979,0.3276767530907847,-1.9457627671587987,-0.010614518668892504,0.5373866533713091,double
6435,0.21630087961042258,0.18618270254057342,0.3212518554032534,-1.8594143149996283,0.16876497413122207,0.563930413962468,double
6446,0.33566715910651695,0.44060268299437605,0.3155149368127487,-1.6332933207220384,0.1820146125519825,0.5127389023056249,double
6457,0.43836571778356526,0.6420700414057577,0.320563876306227,-1.413384297614909,-0.04119055852089108,0.3553722861565646,double
6469,0.4631704611662714,0.7095037229033635,0.34144385392854915,-1.1462630844734365,-0.34797025633440165,0.12785428054244793,double
6480,0.2736568880517344,0.42529471539337665,0.42267238048539163,-0.9052328484543345,-0.6353851044170319,-0.1110395958417734,double
6491,0.14382962948921002,0.22134663254455164,0.486231498539369,-0.7530360077672207,-0.8178222112215069,-0.26840621199083375,double
6503,0.03376552561212616,0.109649642471198,0.5566760467365371,-0.6921572307806295,-0.8514558650778657,-0.26840621199083375,double
6514,-0.039093050592881394,0.127851788582548,0.6105996979835263,-0.6871875378157862,-0.7434204763981483,-0.12051948815019402,double
6525,-0.06699640264594732,0.24451361649859898,0.6383632260247306,-0.6989905649684993,-0.5456954164620775,0.07097480243676174,double
6537,-0.041032855815821806,0.38516933651451174,0.6496077368400648,-0.6840814758960332,-0.13801470698368765,0.19231773462245186,double
6548,0.020590089155165855,0.47990454269523714,0.6592450833713619,-0.6598541705304983,-0.016729713280411552,0.10889446486181609,double
6559,0.07368233587076746,0.5328571647376581,0.6766832857842429,-0.6207178269821794,0.0372879727101467,0.027367173562864413,double
6570,0.07058372720040763,0.5928418949873124,0.7186744471188713,-0.5536269363340183,0.04747998042794595,0.004615400958864338,double
6582,0.043067701231136624,0.5837391274477322,0.7312949161282585,-0.46603605330018455,0.04238396821974591,0.0178872812544438,double
6593,0.01632632742945555,0.5551938515780803,0.738866445644167,-0.3753391490583432,0.03524955780770619,0.036847096935075666,double
6604,-0.015453460265525678,0.5225140349793561,0.7457499960630494,-0.29147551793675314,0.0372879727101467,0.052014955692339264,junk
6615,-0.04335681231859161,0.4844525374972166,0.7537801783103087,-0.21941492414581243,0.05767200484434602,0.07666273782181411,junk
6627,-0.05265898793760216,0.444740612691259,0.7583704650724361,-0.16102101908648392,0.10659367862670424,0.11837438823402732,junk
6638,-0.0406455297320268,0.44101613706728326,0.7524042201162559,-0.11256649995684187,0.2778195619128592,0.20748559337971548,junk
6649,-0.012739002874995329,0.4848659915701238,0.738866445644167,-0.10449073489430906,0.35833650804633754,0.23213337550919033,junk
6660,0.031051068221595726,0.5374051595396375,0.7161499773721324,-0.07964225989215648,0.4031813520238147,0.23782131089424266,junk
6672,0.14499160774059497,0.5733993866572409,0.6615383470281168,-0.03553621320105792,0.396046941611775,0.21886149521361084,junk
6683,0.17405693804504585,0.5634697109718462,0.639970390308768,0.01850921941972712,0.3410100732178978,0.19231773462245186,junk
6694,0.16824387198415566,0.505965705159635,0.6340041453525876,0.07690314483492844,0.25641631397813924,0.1790458543268724,junk
6705,0.1337528017026096,0.3897173313164912,0.6420343275998472,0.12597888449087025,0.1738609863394221,0.18283781125024062,junk
6717,0.09228668710878837,0.2784337953160448,0.6541961438778832,0.13467584972383,0.12493931255706389,0.17525386633971352,junk
6728,0.06748194372608227,0.23085946518922848,0.6610796942967655,-0.011308948547268693,0.16570737682546252,0.15629405065908167,junk
6739,0.07445698803835739,0.2680940545255535,0.6539668175122078,-0.102627103849219,0.21157145330206126,0.19421371308413599,junk
6750,0.10236034009142332,0.3686210066947907,0.6362974090093425,-0.14611193001401782,0.23807068004777962,0.24161329888140157,junk
6761,0.12600310522274458,0.4844525374972166,0.6165640632153978,-0.12126345501186522,0.2350130827420201,0.28522089669150824,junk
6773,0.1415056729864402,0.6106305870257552,0.5988965344368412,-0.03739985442408438,0.20545624199194135,0.32693251603993084,junk
6784,0.12367597391600915,0.5556073056509875,0.5982085553398148,0.07690314483492844,0.16570737682546252,0.35916424307993283,junk
6795,0.08995955580205303,0.4013008232935149,0.6009623514522295,0.18188796851261813,0.14022733248306316,0.3724361233755123,junk
6806,0.06321818200037196,0.23913532458299436,0.604174800295995,0.22537278449948056,0.1473617428951029,0.3648522095287758,junk
6818,0.0577924420232768,0.15143222660950242,0.6037142678403353,0.1812667479863184,0.18914902296402222,0.3572682646182487,junk
6829,0.07484431412215231,0.16549644302396938,0.5977499026084637,-0.07839982901749337,0.3155300288754984,0.3553722861565646,junk
6840,0.10778608006851849,0.2585778329130659,0.5842121281363749,-0.20450586560715553,0.3562981098424978,0.3402043963355103,junk
6851,0.15119199988528015,0.3876500609519551,0.566313393267834,-0.27780884956101376,0.3613941053520971,0.3212445806548785,junk
6863,0.22676503348081797,0.6176626952329887,0.5385498652266297,-0.2815361218291303,0.3277604514957381,0.3117646572826672,junk
6874,0.24265492732830862,0.6809584470337116,0.5309764559864122,-0.22252098606556558,0.26660833839453935,0.30797270035929897,junk
6885,0.24381690557969357,0.67971808481499,0.5277640071426466,-0.1187786034404754,0.1952642342741421,0.2965967985254036,junk
6897,0.2380038395188034,0.6184896033788032,0.527993333508322,0.0023577096505343043,0.13207372296910364,0.2795329613064559,junk
6908,0.227152359564613,0.5357513432480085,0.5316644350834385,0.10423646123053444,0.08722884559442476,0.2700530379342446,junk
6919,0.21010048746573737,0.4670772995316811,0.5385498652266297,0.17256978275335863,0.051556793534226146,0.2871168751531924,junk
6930,0.2004109857629319,0.4261216235391911,0.5440555777271502,0.1402667530370366,0.04646078132602611,0.2795329613064559,junk
6941,0.20506207357243714,0.41950296940486476,0.5431382722644481,0.08373647902279814,0.0372879727101467,0.254885179176981,junk
6953,0.21164979180091734,0.44391370454544454,0.5385498652266297,0.02410013291087011,0.015884724775426698,0.21506950722645196,junk
6964,0.21746285786180752,0.5518862189948225,0.5344182311958533,-0.015657431163748573,-0.01876812818285207,0.17146190941634523,junk
6975,0.22056464133613288,0.6155954248684525,0.5348768839272043,-0.02186955500325492,-0.060555391553170565,0.11647837870855257,junk
6986,0.22444107697804816,0.6420700414057577,0.5374013536739435,0.010433464535130712,-0.10641946802976923,0.04822299876897102,junk
6998,0.23102879520652828,0.6114574951715697,0.54107245524906,0.07876678605795491,-0.15432194271020763,-0.01434444578555814,junk
7009,0.22056464133613288,0.5353378891751014,0.5472680265709157,0.16635766909178867,-0.20324361649256584,-0.04088823744050774,junk
7020,0.18374643974785132,0.4331571207142353,0.5589711901176009,0.293084885496005,-0.2531845227740456,0.010303336343916681,junk
7032,0.13762923734452492,0.31608183872527706,0.5773266979931839,0.28811518235322536,-0.22057005132100566,0.05011897723065516,junk
7043,0.10197301400762832,0.19735274044468984,0.5963720646901021,0.22164551223136403,-0.1451491173957274,0.0918305965790777,junk
7054,0.08453381582495778,0.1820447728436905,0.6064680639527499,0.10547888192726114,-0.049344168034850644,0.1259583020807638,junk
7065,0.13181617128363474,0.26064510327760204,0.5975205762427883,-0.023111975699981625,0.036268756909626026,0.13733420391465917,junk
7077,0.18529574408303126,0.3471078390323723,0.5832929429493641,-0.129960420244825,0.08824804469634459,0.11458240024686844,junk
7088,0.2147515752752426,0.44349686150472656,0.5748041079707534,-0.19580889019625938,0.10251686552042405,0.08424668273234123,junk
7099,0.22521572914563812,0.5287192350407751,0.5777872304488436,-0.2076119173489723,0.08926724379826444,0.06149487906455051,junk
7110,0.22095196741992779,0.5663638894821967,0.5851294335990768,-0.09952104192946583,0.04136476911782607,0.06149487906455051,junk
7122,0.20196029009811187,0.5390623647990771,0.5931596158463365,-0.024975606745071693,0.030153562298106982,0.0899346181173936,junk
7133,0.17444426412884084,0.4654234832400522,0.6048627793930215,0.03217588779546652,0.036268756909626026,0.1316462685296068,junk
7144,0.14692823815956985,0.3785472934123748,0.6193178593278126,0.05578193192295599,0.059710403048185715,0.17146190941634523,junk
7155,0.1267777573903345,0.2949821251357658,0.6365286150993268,0.043978904770243056,0.0902864429001843,0.20558961491803135,junk
7166,0.1267777573903345,0.31484147650655536,0.6411170221371454,0.008569833490040648,0.11372808903874396,0.21886149521361084,junk
7178,0.12793973564171945,0.35538030945832744,0.6390512051217573,-0.02932408936155157,0.1229009143532242,0.2112775503030837,junk
7189,0.12871438780930938,0.4004739151477005,0.6305623701431465,-0.05044530227352403,0.12188171525130435,0.19231773462245186,junk
7200,0.13336547561881462,0.44225649928600486,0.6213836763432007,-0.045475599130744386,0.11067049173298445,0.17714984480139762,junk
7211,0.13801656342831983,0.4844525374972166,0.6140414731929675,0.028448615527349994,0.08213283338622472,0.15060608421023866,junk
7222,0.14072784601488475,0.5134112674397757,0.6092218600651647,0.08000920675468161,0.07194082566842548,0.11268642178518432,junk
7234,0.14266765123782515,0.510103634856518,0.6062387375870745,0.12784251553596032,0.06786401256214528,0.07666273782181411,junk
7245,0.13995319384729474,0.47949108862233,0.6034849414746598,0.1651152382171256,0.07194082566842548,0.0652868670517094,junk
7256,0.13142884519983974,0.38930387724358395,0.5949961064960492,0.18685766147746138,0.08417124828866523,0.08045469474518235,junk
7267,0.1353021060377895,0.3326301685449981,0.58948851427122,0.18810008217418808,0.10455528042286456,0.10889446486181609,junk
7278,0.14072784601488475,0.2817448168671133,0.5807684732026249,0.1651152382171256,0.12799690986282342,0.14302217036350218,junk
7290,0.15196665205287008,0.25940474105888034,0.5692965157459242,0.11666069873161072,0.14838094199702273,0.1809418327885565,junk
7301,0.1701836772070961,0.2825717250129277,0.5571346994678882,0.053297090529502565,0.1565345515109823,0.21886149521361084,junk
7312,0.19227396319927192,0.3384219145335099,0.546809373839565,-0.04112711651426451,0.12188171525130435,0.23782131089424266,junk
7324,0.21320227094006275,0.39385526101337415,0.5399258234206826,-0.0479604507021342,0.08315204918674539,0.22075747367529494,junk
7335,0.22056464133613288,0.430259553236074,0.5369427009425924,-0.030566520236214683,0.04136476911782607,0.20748559337971548,junk
7346,0.19886168142775204,0.4401892289214688,0.5447435568241766,-0.0019907729659455766,0.0067119161595473,0.1961096915458201,junk
7357,0.18413376583164634,0.4145415205299781,0.5539222506241225,0.02161528133948029,-0.01265291687273219,0.18473378971192472,junk
7368,0.17328228587745592,0.38516933651451174,0.5626422916927175,0.0296910362240767,-0.01265291687273219,0.17525386633971352,junk
7380,0.1643706111462059,0.3549668553854202,0.566313393267834,0.02223649168784365,0.002635119751867931,0.1733578878780294,junk
7391,0.15894487116911074,0.32973260106683683,0.565854740536483,0.001115288953807595,0.02301915188606726,0.16956593095466113,junk
7402,0.16165615375567555,0.3144246334658375,0.5633302707897438,-0.05417257454164055,0.051556793534226146,0.16577394296750225,junk
7413,0.1666945676489758,0.3156683846523698,0.5587418637519252,-0.06970286378453361,0.04238396821974591,0.17714984480139762,junk
7425,0.16708189373277071,0.3367647092740703,0.5539222506241225,-0.06597560169435349,0.018942338779787057,0.19231773462245186,junk
7436,0.16204347983947057,0.3644830769979078,0.5523169660643942,-0.044233178434017674,-0.007556904664532145,0.20558961491803135,junk
7447,0.15545576161099037,0.3946821691591886,0.565854740536483,-0.010687738198905339,-0.02692173769681163,0.22075747367529494,junk
7458,0.15971952333670067,0.4029580285529545,0.576409392530482,0.0296910362240767,-0.035075347210771206,0.2302373970475062,junk
7469,0.16475793723000093,0.4033714826258617,0.5819169847553112,0.07193345187008521,-0.035075347210771206,0.23402935397087443,junk
7481,0.16591991548138588,0.38475249347379387,0.5828342902180133,0.11169100576676749,-0.032017749905011675,0.23402935397087443,junk
7492,0.1643706111462059,0.33635125520116305,0.5844414545020503,0.14275160460842642,-0.029979351701171993,0.23592533243255856,junk
7503,0.15661773986237532,0.272642049327533,0.589947167002571,0.14647887687654293,-0.013672115974652031,0.2510931911898222,junk
7514,0.14228032515403016,0.21389768129660017,0.5931596158463365,0.10672131280192425,0.005692717057627452,0.254885179176981,junk
7526,0.1353021060377895,0.18245822691659777,0.5883418824428425,0.04894860791302269,0.02607674919182678,0.254885179176981,junk
7537,0.14460428165680003,0.1977661945175971,0.5809996792926092,-0.0057180452340621045,0.039326370913986386,0.2510931911898222,junk
7548,0.16746921981656573,0.29912005483264875,0.5731969436867164,-0.03926348546917444,0.044422383122186423,0.2454052558047698,junk
7559,0.17444426412884084,0.3458674768136506,0.5695258421115996,-0.046718030005407495,0.044422383122186423,0.23782131089424266,junk
7570,0.18452109191544133,0.36075860137393206,0.5642475762524459,-0.03243015128130474,0.04238396821974591,0.22075747367529494,junk
7582,0.19033415797633152,0.34545402274074344,0.5610351274086801,-0.010066527850541985,0.03524955780770619,0.19990164846918837,junk
7593,0.19033415797633152,0.32642496848357905,0.5640182498867703,0.006706192267014183,0.0199615378817069,0.188525746635293,junk
7604,0.18568624497079173,0.31938947130853484,0.5729676173210407,0.006706192267014183,-0.008576103766451994,0.20558961491803135,junk
7615,0.17444426412884084,0.32063322249506726,0.5839809220463906,0.0004940786054442416,-0.011633717770812351,0.21886149521361084,junk
7626,0.15700506594617034,0.32228703878669607,0.5947667801303738,-0.00261198331430893,-0.0055185064606924645,0.22644540906034732,junk
7638,0.1434423034054151,0.3214601306408817,0.6044041266616706,-0.00261198331430893,0.00875031436338698,0.2302373970475062,junk
7649,0.13607993300934496,0.3243543091512322,0.6126636352746057,0.0004940786054442416,0.027095948293746622,0.23592533243255856,junk
7660,0.1294890399768993,0.3359378011282559,0.6151881050213449,0.007948623141677295,0.04544158222410627,0.2435092773430857,junk
7671,0.12406329999980416,0.34876165532400116,0.622071655440227,0.020994070991116942,0.06684481346022543,0.2454052558047698,junk
7682,0.1267777573903345,0.3669638014353511,0.6349214508152897,0.039630422153763174,0.09844006911274468,0.23782131089424266,junk
7694,0.12445062608359908,0.405852207063305,0.6468539407276501,0.0694486002986954,0.14226573068690287,0.23402935397087443,junk
7705,0.11476429918475914,0.4869366509024706,0.6463952879962993,0.21916066065997422,0.2757811470104187,0.29280484160203535,double
7716,0.11398964701716921,0.613938219609013,0.634233471718263,0.3775697269659584,0.3471252845280176,0.3231405591165626,double
7727,0.1325908234512247,0.7194300096209476,0.6243667988212908,0.6204635533184047,0.41235416063969416,0.30797270035929897,double
7739,0.1899468318925365,0.6482752414671767,0.5927009631149854,0.9385240252036087,0.47350627374089294,0.22265345213697907,double
7750,0.2104878135495324,0.49934705102530874,0.5621836389613665,1.272736047569751,0.5214087484213313,0.10510250793844785,double
7761,0.22947631606738278,0.319802925381442,0.5261587225829182,1.558493622051806,0.5458695936618108,0.008407357882232576,double
7772,0.24730601513781386,0.14440011840226893,0.48806798918908173,1.76722067568554,0.5387351832497711,-0.06743199803166672,double
7784,0.26319590898530454,0.005811668750892288,0.4472253394071392,1.8989176054104724,0.5040823135928915,-0.13568737797124825,double
7795,0.2841210419221298,-0.06948102909976146,0.4020217292287451,2.0330993867067946,0.3746437270742567,-0.32338974269862647,double
7806,0.2965250010154657,-0.11953608366402112,0.35613013995332427,2.108266032239552,0.2880115696306585,-0.4561085145906307,double
7818,0.281409759335565,-0.22130678701979073,0.31758075382813683,2.1977205463184757,0.22074426191794064,-0.5926193055335843,double
7829,0.24226760124451363,-0.38967748579173034,0.2866028972188581,2.2573568924304035,0.20443704289002151,-0.7082743023342222,double
7840,0.21126246571712232,-0.6672644501995803,0.21271845353655747,2.255493261385314,0.23807068004777962,-0.7935936126841233,double
7851,0.2445915577472835,-0.6999476557661151,0.1670561906268123,2.218841759230448,0.28291555742245844,-0.8656409806108637,double
7863,0.2775333236936497,-0.7351115857700935,0.11198590755144568,2.2026902494612552,0.29820359404705854,-0.9490642503714994,double
7874,0.29148658712216546,-0.7950963160197476,0.05186668498260079,2.234993268999641,0.2757811470104187,-1.0590311564681318,double
7885,0.2798604550003851,-0.8753538517130988,-0.010087148511647952,2.318856879765358,0.22074426191794064,-1.1974379258727694,double
7897,0.2484679933891988,-0.9986343337634761,-0.07502222475967818,2.5487052989801104,0.08620964649250491,-1.508379201247522,double
7908,0.20235079098587233,-1.1934830380405317,-0.14041971318767696,2.630084210843484,0.053595191738065824,-1.5936984494698418,double
7919,0.13491477995399456,-1.4359060724444033,-0.20627397462271788,2.66238723038187,0.053595191738065824,-1.588010483020999,double
7930,0.07717144542888774,-1.6634379822879937,-0.3581744960180953,2.6480993618357034,0.07092162656650564,-1.5538828085831033,double
7942,0.10778608006851849,-1.6100719061726654,-0.45317012341270235,2.637538755379717,0.06276800035394524,-1.5614667224298397,double
7953,0.10158568792383339,-1.6266168470245759,-0.5561978127788778,2.6909629878300754,0.002635119751867931,-1.629722133433212,double
7964,0.07135837936799756,-1.6671590689441584,-0.6608307867047816,2.8127205214473845,-0.09724665941388984,-1.7358972068616385,double
7976,0.027952459551235986,-1.7250765288292769,-0.7583508838461278,2.9773416912370023,-0.20833962870076586,-1.8799920359064914,double
7987,-0.048782552295686864,-1.9042072004002362,-0.8499047360312937,3.2655837203509277,-0.38771912150088045,-2.1985172561917707,double
7998,-0.14954448055376027,-2.2020635812839724,-0.9375581602756676,3.2643412894762647,-0.41116075094083926,-2.259188722284616,double
8010,-0.23868027669005334,-2.4664132374231693,-1.006166217823123,3.1556295192244233,-0.37650789798256057,-2.1985172561917707,double
8021,-0.3448711197291875,-2.6029310277421995,-1.1174534158022338,2.9816901738534827,-0.30516377716356247,-2.0695903790955534,double
8032,-0.336343596277767,-2.509436183780196,-1.1982232896277254,2.789114467141959,-0.22668527932972635,-1.9425594804610202,double
8044,-0.31502796245318115,-2.362161809629957,-1.2945948752163854,2.6344326934599636,-0.17776357215016647,-1.8553442537770164,double
8055,-0.327819247630312,-2.275702462842997,-1.3962447266641989,2.56175074682955,-0.16859076353428706,-1.7870888738374349,double
8066,-0.35882120835373776,-2.236400603142136,-1.4921595392458167,2.567341650142757,-0.179801987052607,-1.7226252955022685,double
8078,-0.39409010560683927,-2.2086822354182987,-1.5777471464748023,2.666114502649986,-0.19203240967284674,-1.6316181118948963,double
8089,-0.4274191976370004,-2.1933776567851098,-1.658975673031645,2.682887232945479,-0.1818403852564467,-1.6183462315993167,double
8101,-0.4378833515073958,-2.133392926535455,-1.7255179135637122,2.674811478060882,-0.19814762098296662,-1.6524739371010027,double
8112,-0.4778001617660371,-1.9348197466344246,-1.9221652721304419,2.686614505213595,-0.23993490105188595,-1.747273108695534,double
8123,-0.5192662763598583,-1.881040216446189,-2.015783061606687,2.735690244869537,-0.26847254270004484,-1.8667201556109116,double
8135,-0.563059522260415,-1.8330490432786548,-2.096323609066503,2.807129618134178,-0.2878373757323243,-1.9804791739498655,double
8146,-0.643283643665458,-1.8450493782963966,-2.1695200736517775,2.8779477810504557,-0.3102597893717625,-2.0733823360189216,double
8157,-0.7308701354665712,-1.8855882112481683,-2.238817990020568,2.894099290819648,-0.2745877540101647,-2.194725268204612,double
8169,-0.7707869457252124,-1.9186848708876105,-2.295722884021339,2.7959478013298282,-0.21445484001088577,-2.1928292897429276,double
8180,-0.7785366422050777,-1.9389542873634966,-2.3423024523937857,2.6288417901467573,-0.1502451296039274,-2.135949780573451,double
8192,-0.8304700854732597,-1.9269573413135659,-2.437527406154068,2.4095538247189454,-0.09113144810376997,-2.0316707166704995,double
8203,-0.8455853271531605,-1.8454628323693036,-2.490763078304031,2.160447833815247,-0.04119055852089108,-1.88378402389365,double
8214,-0.8525603714654354,-1.7449358802000665,-2.54720931957345,1.916311546054328,-0.008576103766451994,-1.7093534152066892,double
8226,-0.8544970018844102,-1.6382003390015993,-2.6029675817458435,1.7088267502703387,-0.0004224942524924265,-1.538714918762049,double
8237,-0.84209621759504,-1.5496703328822932,-2.65207161986503,1.5591148324001693,-0.01876812818285207,-1.3927242044468844,double
8248,-0.863411851419626,-1.5666321167749213,-2.6887845153405046,1.410023962031381,-0.07584341147916984,-1.0779909721487635,double
8260,-0.9374324058760183,-1.6584731444452963,-2.7096663726871353,1.2919937006821882,-0.07176661507149049,-0.8542650787769683,double
8271,-1.0013793073497756,-1.7490704209291386,-2.7193037192184324,1.0727058064999309,-0.040171359418971236,-0.5926193055335843,double
8282,-1.0219202890067718,-1.8549756650139804,-2.7528041658501414,0.7676908231759122,0.0067119161595473,-0.2892620371969404,double
8294,-1.0199804837838313,-1.8078147889600713,-2.7711615534500336,0.4303726981782711,0.060729602150105554,0.06339085752623462,double
8305,-1.0223076150905668,-1.707287836790834,-2.7895170613256166,0.11914555030300054,0.11372808903874396,0.4293156325449891,double
8316,-1.0083543516620508,-1.6241361225871322,-2.80580863191012,-0.12809677902179853,0.1585729664134228,0.7459448433047939,double
8328,-0.9773492161346597,-1.6034498630705283,-2.8165944899941033,-0.30949065875103604,0.18507220985774203,0.9848386886252246,double
8339,-0.959910017951989,-1.6435786309172038,-2.813152714784662,-0.6306572129118658,0.16876497413122207,1.2957799950637676,double
8350,-0.9668882370682297,-1.71101231241481,-2.797319796931509,-0.8455965023424065,0.14838094199702273,1.4038510469538783,double
8361,-0.972313977045325,-1.7635514803843235,-2.778045103868916,-1.0971873448174947,0.1371697184787028,1.517609941037669,double
8373,-0.9366577537084284,-1.763964934457231,-2.731694861862144,-1.3444297657437212,0.136150519376783,1.6560167104423071,double
8384,-0.9188312294419629,-1.7474166046375097,-2.6961285982150467,-1.549429709956321,0.14124653158498301,1.8076953912063152,double
8396,-0.9079797494877725,-1.7726508589560932,-2.6463347012745246,-1.6972779967814002,0.15449615330714261,1.9574780624448482,double
8407,-0.8862767895793916,-1.8359466107568159,-2.5910350918334832,-1.7898385727800774,0.18303381165390234,2.097780841374961,double
8418,-0.8436455219302199,-1.9021365410678897,-2.5345888505640635,-1.8525809808117586,0.2217634610198605,2.2267078116625503,double
8430,-0.8045033638391687,-1.989426184968474,-2.476764771376282,-2.0060203337970264,0.268646736598379,2.359426645682136,double
8441,-0.7847402091537282,-2.1040207425199893,-2.4191718982784853,-2.1402021049154123,0.27883876101477906,2.3556346887587676,double
8452,-0.7676851622508871,-2.2264709274567416,-2.361806471822055,-2.332777811626936,0.2880115696306585,2.3518427007716087,double
8464,-0.6603355157643336,-2.4039477827360716,-2.241111253677323,-2.550201983162675,0.29616517914461804,2.418202133313297,double
8475,-0.6196440533381024,-2.4403520749587715,-2.1725031961298673,-2.7533384489992314,0.312472414871138,2.5983205531301476,double
8487,-0.5832131778336158,-2.399809853039189,-2.1036658122167364,-2.9341111183801054,0.3481444836299375,2.8561740277484664,double
8498,-0.525857169392304,-2.2976256956105123,-2.0373528980503446,-3.080717137177504,0.390950929403575,3.1140277819409006,double
8509,-0.4677233339794367,-2.204134240616319,-1.9689741668685645,-3.1565049930586246,0.4154117746440545,3.316897974361752,double
8521,-0.42083147940852034,-2.1445595754717615,-1.8870576612146954,-3.071398961596181,0.3573173089444177,3.4060092105712307,double
8532,-0.3669614057213633,-2.1433192132530396,-1.7929793392827904,-3.011762615484253,0.29004996783449816,3.2638104531794343,double
8543,-0.30882757030849595,-2.2268843815296484,-1.692476119663354,-3.0341262389150154,0.22074426191794064,3.0704201530670034,double
8555,-0.21620266461408258,-2.2951449711730687,-1.4930768447085188,-3.162717116898131,0.1585729664134228,2.892197711711837,double
8566,-0.17628585435544128,-2.183861435172622,-1.3962447266641989,-3.3298228125651734,0.10761287772862407,2.755686920768883,double
8577,-0.15303359011188059,-2.0291414987422427,-1.2945948752163854,-3.4242470297868772,0.07499842297418499,2.6533040527741494,double
8589,-0.14838250230237532,-1.9306818169375415,-1.184454309065652,-3.398777344436361,0.07194082566842548,2.55471292425625,double
8600,-0.12047915024930939,-1.9455763304656337,-1.079821335139748,-3.306216758259748,0.11270888993682412,2.4523298388149826,double
8611,-0.06854888178509273,-2.0287280446693354,-0.985284360476492,-3.2186261907419427,0.2747619479084989,2.4523298388149826,double
8622,-0.04025502884426625,-2.201650127211065,-0.9042870400096338,-3.2937925207586716,0.3481444836299375,2.6210723567979386,double
8634,-0.010415046372225439,-2.353475885131094,-0.8404967158656723,-3.4932015514801287,0.377701341078617,2.814462408400044,double
8645,0.14692823815956985,-1.9290280006459124,-0.7239312520274079,-3.7541105695365395,0.3328564637039382,2.9377013190474184,double
8656,0.17405693804504585,-1.5236091704178951,-0.6307721152825136,-3.9299135459525707,0.23399388364010024,2.949077220881313,double
8667,0.15468110944340044,-1.2629839899026736,-0.5165017948253129,-3.9255650633360903,0.1494001410989426,2.8675499295823617,double
8679,0.1353021060377895,-1.1483894323511585,-0.416686554302903,-3.7870347994232887,0.14634254379318304,2.7632708656794103,double
8690,0.15777971811376026,-0.9742269875907072,-0.3421122517992672,-3.641671211500553,0.23705148094585976,2.6969116816480474,double
8701,0.23451472996068304,-0.6991207476203005,-0.26914511357966864,-3.5031409475877515,0.479621468352412,2.6059044669768845,double
8713,0.336441811274107,-0.4372518159185466,-0.201913014226266,-3.423625819438514,0.5366967683473305,2.4409539369810878,double
8724,0.42945404305231527,-0.19482878151467506,-0.13835389617228863,-3.2919288897135814,0.5254855615276115,2.1982679483545446,double
8735,0.4666595707243918,-0.06120516970599558,-0.06745069524376944,-3.112398946367526,0.4582182371162928,1.9859178014976913,double
8746,0.4949502488612528,0.04262941504649933,0.0413120329886019,-2.9384596009965853,0.3685285157641368,1.8475110320930537,double
8758,0.5794349571880406,0.2585778329130659,0.09729962152667056,-2.8129747951111597,0.26355072439017896,1.7375440017412587,double
8769,0.6689580794081287,0.534510981029287,0.15558235344580273,-2.6943233132356665,0.12188171525130435,1.6408488516850435,double
8780,0.680971537613704,0.7665908856748567,0.22763218620269934,-2.4936716989705006,-0.05851699334933089,1.5517376465393555,double
8792,0.6131513753019966,0.9349649734146069,0.308860712759542,-1.7842476694668707,-0.3989303283205995,1.276820179383136,double
8803,0.5414547773483742,1.0520402554035653,0.3903185656820601,-1.420217621624842,-0.5028889372912383,1.0000065473824882,double
8814,0.5096749896533929,1.0723096718794514,0.46695868520108397,-1.107126730747181,-0.5660794485962769,0.6928572910586852,double
8826,0.499988662754553,1.014809055035051,0.5390085179579805,-0.8288238636483416,-0.5956362893463556,0.4653393165083593,double
8837,0.40697643097634456,0.7070196094981095,0.6695704089996851,-0.5896572281405205,-0.5803482694203562,0.36106022154161693,double
8848,0.3306287452132167,0.4736993426338181,0.7225748750596634,-0.4312481821904091,-0.5069657503975186,0.3364124394121421,double
8859,0.28528619497748026,0.2527860869245541,0.75768248597541,-0.4001876240604958,-0.3734502839782001,0.3458923627843533,double
8871,0.30388737141153566,0.21514143248313258,0.7641073836629411,-0.5095208896429197,-0.20528203139500634,0.3648522095287758,double
8882,0.37752059978413316,0.4029580285529545,0.7480451394441129,-0.707687530201459,-0.053420981141130836,0.38760398213277586,double
8893,0.4577447211891762,0.7206737608074799,0.7273926084631572,-0.8865964972916883,0.049518378631785626,0.3970839055049872,double
8904,0.5073510331506229,1.0437643960097993,0.7209677107756262,-0.7095511714244855,0.027095948293746622,0.3231405591165626,double
8916,0.5197518174399933,1.2551614301065757,0.7237215068880409,-0.38465732463966634,0.0005967048494274138,0.1961096915458201,double
8927,0.5050239018438876,1.206346737761038,0.7152326719094303,-0.00820288662751552,-0.011633717770812351,0.053910965217814036,double
8938,0.5112274687925383,1.0896849098449868,0.7035295083627452,0.3316000390518334,-0.01876812818285207,-0.05036812974892835,double
8949,0.5182025131048135,0.9742668331154681,0.6936628354657727,0.6005847712810954,-0.029979351701171993,-0.10724760785461453,double
8961,0.5073510331506229,0.8253352537057894,0.6902210602563317,0.8062058851303129,-0.049344168034850644,-0.17171106193461846,double
8972,0.47595857153943666,0.6275923709183835,0.6918282245403691,0.9521906935793479,-0.07074739927096982,-0.27030219045251785,double
8983,0.444956610816011,0.41329776934344575,0.6936628354657727,1.0186603637012095,-0.06667060286329045,-0.4087089287933651,double
8994,0.4232536509076302,0.25609710847562267,0.6890744284279543,0.9571603865441912,-0.022844941289132267,-0.370789328495892,double
9006,0.4058112779209941,0.2258946273465311,0.678747223075322,0.8900694958960301,0.04544158222410627,-0.2873660587352562,double
9017,0.39844890752492396,0.32270049285960334,0.6642921431405311,0.8726755654301106,0.12595851165898372,-0.24375839879756828,double
9028,0.47944768109755703,0.5916015327685908,0.5901764933682463,0.9472209904365684,0.1840530107558222,-0.29305399412030864,double
9040,0.542229429515964,0.6280058249912907,0.5396964970550072,1.1453876004612986,0.18099541345006268,-0.4295647539994717,double
9051,0.5406801251807841,0.5229274890522634,0.49678803025767654,1.4566148602938696,0.10353608132094472,-0.6020992289057957,double
9062,0.4654944176690413,0.28877692507434677,0.4710884395075515,1.7895843092942392,-0.0014416933544122669,-0.7651537804399082,double
9073,0.3678342728852933,-0.01652840705734054,0.455255521654399,2.153614499627377,-0.053420981141130836,-0.9661280875904473,double
9085,0.30582400183051056,-0.2721887497298649,0.4336856852107415,2.1467811654395077,0.013846326571587018,-1.0021517715538175,double
9096,0.2949725218763202,-0.4004340696229396,0.3990386067506549,2.093978153515449,0.08111363428430488,-1.0362793528003411,double
9107,0.31512617744952115,-0.4521463294466389,0.35475230203496255,2.0740993714781397,0.11270888993682412,-1.0931588619698178,double
9119,0.34613131297691246,-0.528265935443107,0.2494313490120322,2.118205418169238,0.10557447952478441,-1.176582100666663,double
9130,0.35465566162436746,-0.5688081573626897,0.17829882171783762,2.215735697310695,0.06888321166406511,-1.273277250722878,double
9141,0.3744219911137734,-0.6010745198885067,0.09064539747346384,2.349917478607017,0.0046735179557076114,-1.3737643887662523,double
9152,0.36705644591373765,-0.6718158339693704,-0.007792005130584431,2.527584086068138,-0.09928505761772954,-1.4723555172841518,double
9164,0.31667548178470106,-0.7437975102689558,-0.1066880604659835,2.7481144823706134,-0.23178129153792637,-1.5804265691742625,double
9175,0.23490205604447803,-0.8616997004037285,-0.1948001374417083,3.242599181731957,-0.4937161286753589,-1.9273916217037566,double
9187,0.13995319384729474,-1.071029464135969,-0.2744233794388223,3.452568513571308,-0.5670986476981967,-2.130261845188399,double
9198,0.05081739771100168,-1.29235617391814,-0.3526687835175748,3.5954472601005896,-0.5956362893463556,-2.3084840380332405,double
9209,-0.07901303565548813,-1.7383138370979294,-0.5185657321163922,3.6699926851070477,-0.5946170902444357,-2.4393068935911417,double
9221,-0.1491571544699653,-2.0034904013829413,-0.5917640764259752,3.6811745019113973,-0.5732138590083166,-2.501874338145671,double
9232,-0.22046642633979285,-2.260394495241998,-0.6523400720018622,3.6215381557994695,-0.516138559013398,-2.477226556016196,double
9244,-0.2661963026593243,-2.471791529338774,-0.717735680705552,3.476795778225097,-0.40912235273699965,-2.331235841701031,double
9255,-0.281311544339225,-2.551222156886311,-0.7929979623062144,2.979826532630456,-0.1451491173957274,-1.7832968858502758,double
9266,-0.2762731304459248,-2.4904071295230317,-0.8762923058784452,2.740038727486017,-0.06667060286329045,-1.5785305907125782,double
9278,-0.25495749662133893,-2.3083822794417217,-0.9751883612138443,2.5890840734030927,-0.05545937934497052,-1.5159631150942583,double
9289,-0.2286066237074184,-2.058513682757709,-1.089458681671045,2.5654780190976667,-0.10641946802976923,-1.5918024710081575,double
9300,-0.2553448227051339,-1.7403844964302764,-1.3342908931699502,2.6741902575345824,-0.2001860191868063,-1.7776089504652235,double
9312,-0.32587944240737154,-1.8293279566224898,-1.4469559290674225,2.878568991398819,-0.2959909685476831,-2.007022934541024,double
9323,-0.41772969593419496,-2.0105258985579857,-1.5458519844028216,3.0891598389246258,-0.3622390771584811,-2.1776614309856646,double
9334,-0.5018270781771879,-2.1420788510343183,-1.6273098373253394,3.216508286033078,-0.3887383206028003,-2.2459168109252454,double
9346,-0.5657739796509453,-2.186759002650784,-1.7016548134633,3.1605992121892665,-0.3530662518440008,-2.2061011700385076,double
9357,-0.608405247300117,-2.1747620566008528,-1.7759997896012603,3.0537507574664864,-0.31127898847368235,-2.173869474062296,double
9368,-0.6208060315894873,-2.112293212945944,-1.8521793766646246,2.951250785360187,-0.2847797784265648,-2.147325682407346,double
9380,-0.6006523760162864,-1.8888992327992369,-2.024273776309607,2.8829174740152985,-0.27866456711644494,-2.1283658667267145,double
9391,-0.5987157455973114,-1.7755484264342543,-2.1043537913137627,2.8655235435493793,-0.2898757572375632,-2.141637747022294,double
9403,-0.6180915741989569,-1.747830058710417,-2.179845399280101,2.9003114044812186,-0.32045179708956173,-2.194725268204612,double
9414,-0.6859149113146297,-1.8475301027338398,-2.2438650497897377,2.9555992679766665,-0.3510278536401612,-2.23454090909135,double
9425,-0.7855148613213182,-1.967913017306056,-2.289068659968132,2.974235629317249,-0.3449126423300413,-2.1890373328195594,double
9437,-0.8606973940290956,-1.972464401075846,-2.3273887197276437,2.722023576493798,-0.19101319387232607,-1.88378402389365,double
9448,-0.8951916391146072,-1.917444508668889,-2.375344246294144,2.480371977457286,-0.0676898019652103,-1.6941855564494255,double
9460,-0.923482317251468,-1.8578732324921419,-2.4352341424973134,2.225053872892018,0.06174880125202539,-1.5007952563369946,double
9471,-0.9134054894648677,-1.5893856466560614,-2.567171991733071,2.0001751568200454,0.1718225881355824,-1.311196944211723,double
9482,-0.8831750061050664,-1.5219553541262665,-2.642892926065084,1.8374176282534542,0.2421474931540598,-1.1253905579460293,double
9494,-0.8746506574576113,-1.4963042567669649,-2.713796126993603,1.731811594227401,0.25947392798249963,-0.9623361306670791,double
9505,-0.9017793573430873,-1.4814131322066835,-2.76886641006897,1.6293116221211013,0.22685947322806052,-0.8315132751091776,double
9516,-0.9645611057614943,-1.4785155647285224,-2.806727817097131,1.4733875804114256,0.1677457750293022,-0.7234421610914857,double
9528,-1.042845421943597,-1.4694161861567525,-2.829213079279181,0.9994028021901997,0.09334405690454464,-0.5110920452984233,double
9539,-1.0947788652117791,-1.4272201479455409,-2.8450459971323343,0.750918103058356,0.1014976664185042,-0.36889335003420787,double
9550,-1.0986521260497288,-1.3461357041063753,-2.862486079269524,0.5502666007504906,0.1229009143532242,-0.19635884406409332,double
9561,-1.0691994696614828,-1.2154096597758572,-2.8888736491166753,0.41359997806071497,0.1432849297888227,0.0027193914333895615,double
9573,-1.0556367071207278,-1.2100313678602526,-2.8971331577296104,0.3191758015507571,0.1606113646172625,0.20938157184139958,double
9584,-1.0110688090525815,-1.1707295081593916,-2.9079190158135937,0.2259939948478439,0.16163056371918236,0.3913959390561441,double
9595,-0.9583607136168092,-1.093782994017109,-2.915490545329502,0.13094857745571348,0.12493931255706389,0.5127389023056249,double
9606,-0.951385669304534,-1.05117350173299,-2.9138833810454647,0.06634253837894222,0.05053759443230631,0.5392826318329932,double
9618,-0.9994395021268354,-1.1090875726502976,-2.8971331577296104,-0.016278641512111926,-0.06667060286329045,0.4425875128405686,double
9629,-1.062224425349208,-1.2542946764360003,-2.8647793429262784,-0.14921799193377097,-0.05545937934497052,0.46913127343172756,double
9640,-1.0831527330899988,-1.37426752590312,-2.829213079279181,-0.3660209632990837,-0.002460892456332107,0.6037460548492065,double
9652,-1.029282659402842,-1.43342534800696,-2.7982371023942116,-0.6082935793031667,0.07092162656650564,0.8331600699887979,double
9663,-0.9688248674872045,-1.4177039263330533,-2.7938780217220684,-0.8250965913802251,0.136150519376783,1.1042856423492304,double
9674,-0.9114688590458928,-1.4119121803445416,-2.7885997558629145,-0.999657065676038,0.1708033890336626,1.3564514611566125,double
9685,-0.8831750061050664,-1.4330085049662422,-2.77483265502515,-1.13818732958884,0.1626497628211022,1.5536336250010396,double
9697,-0.8610847201128906,-1.461140326762987,-2.7484450851779982,-1.2506266876248264,0.12086249945078369,1.6654966338145185,double
9708,-0.8335686941436197,-1.4880317863410097,-2.7103543517841615,-1.4313994384291917,-0.004499307358772625,1.6920403944056772,double
9720,-0.8339560202274144,-1.541397862456338,-2.6578085384555346,-1.4916569948894831,-0.05444018024305069,1.6882484374823092,double
9731,-0.8676756131453361,-1.6166905603069917,-2.594937399498584,-1.5481872892595945,-0.06259378975701024,1.6939363728673615,double
9743,-0.8820130278536814,-1.7552756209905578,-2.4815843845040853,-1.6308084691506486,-0.027940936798731476,1.6939363728673615,double
9754,-0.8626371992520359,-1.8289145025495828,-2.4416590401848444,-1.7345507092846293,0.03524955780770619,1.7072082842267315,double
9765,-0.8126435612067943,-1.8661457029180968,-2.4125176742252785,-1.8432628052304354,0.10761287772862407,1.7602958054090494,double
9777,-0.7486966597330368,-1.9141334871178206,-2.3891132268562174,-1.942656715416982,0.16876497413122207,1.8531989985418966,double
9788,-0.6882388678173995,-2.009282147371453,-2.3670847376812088,-2.017823350771803,0.20239864468618182,1.980229866112639,double
9799,-0.6312701854598828,-2.096571791272038,-2.337026066258941,-2.155732404336242,0.1494001410989426,2.310131081423186,double
9811,-0.6192567272543074,-2.1515950726468054,-2.292739761543248,-2.2408384459766224,0.08213283338622472,2.471289654495614,double
9822,-0.6696376913833441,-2.192964202712203,-2.231473907146026,-2.330292960055546,0.04544158222410627,2.575568749462357,double
9833,-0.7828004039307879,-2.3898801773537937,-2.061903977247783,-2.437141414778326,0.08009443518238503,2.632448258631834,double
9845,-0.7448202240911215,-2.4577273129243076,-1.9728745948093562,-2.5986565226481906,0.19016822206594208,2.6855357798141517,double
9856,-0.6541351236196484,-2.4858557457532413,-1.899907456589758,-2.8272626636573257,0.34304847142173744,2.7879186478088847,double
9867,-0.5417438884358291,-2.485028837607427,-1.848508275089508,-3.0682928996764276,0.49083269187073186,2.975620981472473,double
9879,-0.425866718497855,-2.4250441073577726,-1.7994042369703214,-3.257141323941898,0.5917337035356113,3.2220988338310113,double
9890,-0.3448711197291875,-2.287285954820021,-1.736072565557711,-3.4062318787946575,0.5662536257960101,3.533040078141973,double
9902,-0.3192917241788914,-2.147043688877015,-1.6504849583287253,-3.3583985598354427,0.4877750945649724,3.483744513883024,double
9913,-0.30223985208001586,-2.0270708394098955,-1.5424102091933805,-3.2335352798144084,0.4174501728478942,3.316897974361752,double
9924,-0.16272309181468605,-1.8140199890214903,-1.2929895906566569,-3.055247451826988,0.3644517193564574,3.0950679351964783,double
9936,-0.09489975469901325,-1.723422712537648,-1.171835719780574,-2.8490050869176615,0.32979884969957785,2.865653951120678,double
9947,-0.026304940219716095,-1.6530948525296916,-1.0623831327268671,-2.6259900018907785,0.30533800445909826,2.6457201389274134,double
9958,0.029114437802620845,-1.6464761983953653,-0.9676168316979356,-2.4035959745432134,0.28291555742245844,2.4333699920705603,double
9969,0.050042745543411746,-1.7010826367294152,-0.882487877200301,-2.2029445129470933,0.2615123261863393,2.2267078116625503,double
9981,0.06825659589367221,-1.7714104967373716,-0.805389104949926,-1.944520346462072,0.26049312708441946,1.9062865197242145,double
9992,0.10546212356574869,-1.8276741403308612,-0.7436645978213526,-1.9041415720390902,0.26456992349209885,1.8228632499635786,double
10003,0.14499160774059497,-1.8665591569910043,-0.6952504185235016,-1.884884000350144,0.25233951757045986,1.7925275324490515,double
10015,0.200023659679137,-1.9058610166918653,-0.6073676679134523,-1.8674900698842245,0.2156482497097406,1.7849435875385244,double
10026,0.22444107697804816,-1.8711105407607944,-0.5541319957634895,-1.8550658323831481,0.15755376731150297,1.7678797503195764,double
10037,0.24614086208246339,-1.7871319184112782,-0.49493195838165543,-1.8407779536590454,0.09130565870070496,1.7375440017412587,double
10049,0.25273175511490903,-1.6973581611054394,-0.43206081942470465,-1.8078537237722965,0.03830717181206654,1.7072082842267315,double
10060,0.24924264555678874,-1.6489569228328085,-0.37125361775883325,-1.7469749467857054,0.015884724775426698,1.6825604710334658,double
10071,0.2628085829015095,-1.632822047085995,-0.32306688510234893,-1.6320509000253118,0.044422383122186423,1.644640808608412,double
10083,0.31047508964001597,-1.614619900974645,-0.28451937870147015,-1.6339145310704017,0.04849917952986579,1.621889004940621,double
10094,0.3600814016014627,-1.6034498630705283,-0.24528201347925632,-1.6693234598594946,0.03117276140002682,1.6086171246450416,double
10105,0.4116275187858498,-1.5943504844987588,-0.1716250164383224,-1.7283385956230592,0.0016159039513472541,1.6162010695555686,double
10117,0.4104623657304993,-1.5529813544333615,-0.1424836504787562,-1.8146870477822297,-0.030998550803091825,1.6560167104423071,double
10128,0.38721010148693863,-1.43342534800696,-0.1078365720186696,-1.9202930818082828,-0.04730576983101096,1.7299600568307316,double
10139,0.362408532908198,-1.2443650007506057,-0.06630406341539201,-2.007883964842117,-0.03609456301129187,1.8152793050530516,double
10151,0.3678342728852933,-1.018903750239362,-0.019953821408620426,-2.0383233533354126,-0.0004224942524924265,1.8550949770035807,double
10162,0.4046492996696092,-0.8273660675133754,0.025937767866800354,-1.9134597476204134,0.0770368378766255,1.686352459020625,double
10173,0.45619541685399634,-0.7227011856472552,0.06356984852928577,-1.8202779612733726,0.09232485780262481,1.5422577231671442,double
10185,0.5042492496762976,-0.6829858718734867,0.08926943927941079,-1.7413840434724988,0.08417124828866523,1.437978752455564,double
10196,0.56858347723385,-0.5733561521646693,0.123687191373822,-1.6780204250924542,0.059710403048185715,1.398163111568826,double
10207,0.5976488075383011,-0.4732426540683393,0.15168192550501056,-1.6177630213012089,0.018942338779787057,1.390579166658299,double
10219,0.5976488075383011,-0.40581236153854416,0.19275578137693733,-1.5438388066431143,-0.03711376211321172,1.362139427605456,double
10230,0.5817589136908105,-0.3367248637493094,0.24116996067478838,-1.463081247619214,-0.08603543589556993,1.3014679615126108,double
10241,0.5755585215461252,-0.23205998188318935,0.29417630645907555,-1.3872933917380932,-0.11049628113604945,1.2275246151241859,double
10253,0.5805969354394255,-0.13815168384827836,0.3444269764066393,-1.2108691235502076,-0.09724665941388984,1.0682619583858604,double
10264,0.6042365257667811,-0.06741036976741473,0.3838936679945288,-1.0990509758625846,-0.08807385079801044,0.9905266240102769,double
10275,0.6519062073092531,0.01698170665500861,0.4153301773351585,-0.9741873803255221,-0.09724665941388984,0.9146872991601683,double
10287,0.7112020209735053,0.14646738876680504,0.48347958215126313,-0.8269602224253151,-0.1237458861596082,0.8388480364376408,double
10298,0.6887244088975346,0.117508658824246,0.5137675799392065,-0.6623390221018882,-0.1431107191918877,0.7781765703447958,double
10310,0.6612083829282634,0.0711746909161513,0.5392378443236562,-0.514490582607763,-0.1278226992658884,0.7326729630092144,double
10321,0.6468677934159528,0.03808142024451985,0.5637889235210949,-0.4200664060978051,-0.08297782189120957,0.6833773676864742,double
10332,0.6453184890807729,0.011603414739404173,0.583751595680715,-0.38403611429130297,0.0240383509879871,0.5696183804113111,double
10343,0.6441565108293881,-0.015288044838618951,0.5931596158463365,-0.40888458929345556,0.06990241076598495,0.5411786102946773,double
10355,0.6340796830427876,-0.0032910987886881106,0.5943081273990228,-0.4399451474233689,0.11984330034886384,0.5525545121285727,double
10366,0.6228408770048021,0.06993432869742952,0.584670780867726,-0.4529905952728085,0.1677457750293022,0.5847862391685748,double
10377,0.6379561186847028,0.281331362794206,0.5403844761520336,-0.42876333061901933,0.20545624199194135,0.5885781960919428,double
10388,0.6588812516215281,0.3272518766293935,0.514914211767584,-0.3610512703342404,0.22584027412614066,0.535490674909625,double
10400,0.672059862882454,0.2784337953160448,0.4972466829890276,-0.255445226130251,0.22584027412614066,0.44827544822562093,double
10411,0.6724471889662489,0.16756710235631628,0.4944928868766128,-0.15046041263049767,0.2085138559963017,0.36864416645214404,junk
10422,0.6666341229053587,0.057110474501684355,0.498393314817405,-0.09455134896462258,0.1840530107558222,0.3155566142060355,junk
10434,0.6728345150500439,0.0020871931269165144,0.49655870389200113,-0.16102101908648392,0.13003532476526392,0.26246909302371757,junk
10445,0.6918230175678943,0.036424214985080375,0.4908217853014963,-0.21382404118847864,0.09436325600646447,0.2454052558047698,junk
10456,0.6984139106003401,0.1253676751772938,0.48485554034531597,-0.22252098606556558,0.05665280574242619,0.23213337550919033,junk
10467,0.6619830350958535,0.2068655730893667,0.47865996902346025,-0.18214223199845636,0.030153562298106982,0.21886149521361084,junk
10479,0.6488075986388933,0.1878365188322023,0.480955112404524,-0.12126345501186522,0.0199615378817069,0.21506950722645196,junk
10490,0.6402800751874727,0.14150255092410768,0.48531419307666696,-0.0672180223910802,0.0240383509879871,0.2245494305986632,junk
10501,0.6290412691494873,0.08110436660154603,0.4905924589358209,-0.03677863389778462,0.036268756909626026,0.23592533243255856,junk
