timestamp,ax,ay,az,gx,gy,gz,label
79,0.081435207154598,0.0207061822789843,0.5222582946421259,-0.0926877077415961,-0.0044993073587726,0.0709748024367617,3
90,0.0760094671775028,0.0128437769581257,0.5543809033554734,-0.102627103849219,-0.0269217376968116,0.053910965217814,3
102,0.0713583793679975,0.0169817066550086,0.5869640445244808,-0.1038695245459457,-0.0534209811411308,0.0425350633839186,3
113,0.0632181820003719,0.0153278903633797,0.6044041266616706,-0.0492028713988609,-0.0778818263816103,0.0368470969350756,3
124,0.0515920498785916,-0.0152880448386189,0.6039454739303196,-0.0255968272713714,-0.0585169933493308,0.0254711951011803,3
135,0.0473282881528813,-0.0682406668810398,0.5929302894806611,-0.0193847034318651,-0.0289601525992521,0.0103033363439166,3
147,0.035702156031101,-0.125327829652533,0.5695258421115996,-0.0349150028526945,0.0016159039513472,-0.0086565104005057,3
158,0.0337655256121261,-0.1302926674952303,0.5603471483116538,-0.0634907501229636,0.0250575500899069,-0.0162404242472422,3
169,0.0217520674065508,-0.1100232510193442,0.5539222506241225,-0.0926877077415961,0.0464607813260261,-0.0029685439516627,3
180,0.0128372178713352,-0.0839586995871356,0.5520876396987185,-0.1038695245459457,0.0627680003539452,0.0121993148056008,3
192,0.0136118700389251,-0.0810645210767852,0.5596591692146273,-0.0808846805888831,0.0658256143583055,0.0254711951011803,3
203,0.0105132613685653,-0.1265681918712546,0.5754920870677799,-0.0168998518604752,0.0515567935342261,0.0368470969350756,3
214,0.0008237596657599,-0.1811780191731151,0.5927009631149854,-0.017521072386775,0.0637872161544659,0.0444310418456027,3
225,-0.0003382185856249,-0.1977263489928363,0.6053214321243725,-0.0324301512813047,0.0892672437982644,0.0577029221411822,3
237,0.0128372178713352,-0.1774535435491394,0.6087632073338136,-0.038642275120811,0.1147472881406638,0.0709748024367617,3
248,0.0248506760769106,-0.1592513974377896,0.6000431662652186,-0.0287028790131882,0.1341121211729433,0.0899346181173936,3
259,0.0260158291322611,-0.1671104137908374,0.5860467390617787,-0.0113089485472686,0.1524577551033029,0.1145824002468684,3
270,0.0419025481757861,-0.1832452895376513,0.5692965157459242,0.0104334645351307,0.1677457750293022,0.1392301823763433,3
281,0.0694185741450571,-0.2229606033114195,0.5608058010430047,0.0377667911086731,0.1708033890336626,0.1695659309546611,3
293,0.0791080758478626,-0.2527462413997933,0.5518583133330431,0.0501910286097494,0.1626497628211022,0.2074855933797154,3
304,0.0798827280154525,-0.2593648955341195,0.5291418450610083,0.0004940786054442,0.1381889342792235,0.2719490163959288,3
315,0.0887975775506681,-0.258537987388305,0.5052768652362871,-0.0144150104670218,0.1147472881406638,0.3003887554487719,3
326,0.0942233175277632,-0.2639162793039096,0.4995418263700913,-0.0392634854691744,0.0943632560064644,0.3269325160399308,3
337,0.1050747974819536,-0.2477814035570959,0.511472436558143,-0.0665968018647804,0.0821328333862247,0.3534763076948804,3
349,0.1046874713981587,-0.1439434298367902,0.541531107980411,-0.083369532160273,0.0699024107659849,0.3876039821327758,3
360,0.1120498417942287,-0.1104367050922515,0.5390085179579805,-0.0964149800097126,0.0495183786317856,0.4141477427239348,3
371,0.1306541930322498,-0.0839586995871356,0.5328129466361249,-0.1107028587338154,0.0270959482937466,0.4198357091727778,3
382,0.1446042816568,-0.0558268777903909,0.5300591505237103,-0.1237482964053186,0.0087503143633869,0.4179397307110937,3
394,0.1411151720986796,-0.041762661375924,0.5307471296207368,-0.1305816305931883,-0.0004224942524924,0.4103557858005666,3
405,0.1310415191160448,-0.0396953910113878,0.5289125186953328,-0.1361725440843313,-0.0034800915582519,0.3724361233755123,3
416,0.1062367757333386,-0.0425895695217385,0.5192751721640361,-0.1398998061745114,-0.0065377055626123,0.3553722861565646,3
427,0.0756221410937078,-0.0549999696445766,0.511472436558143,-0.1461119300140178,-0.0024608924563321,0.3515803292331962,3
439,0.0450043316501115,-0.0525192452071332,0.5445142304585012,-0.1517028333272244,0.013846326571587,0.3705401449138282,3
450,0.0384166134216313,-0.0210797908271308,0.5670013723648605,-0.1454907196656544,0.0444223831221864,0.4065638288771984,3
461,0.0407405699244012,0.0111899606664969,0.5803098204712741,-0.1237482964053186,0.0790752360804652,0.4331075894683573,3
472,0.0508173977110016,0.0240138148622422,0.5862760654274541,-0.0945513489646225,0.1086320768305439,0.4312116110066732,3
484,0.0659326393909023,0.0178086148008231,0.5913250049209327,-0.0728089257042867,0.1269777107609035,0.4008758624283554,3
495,0.0818225332383929,0.009536144374868,0.5956840855930756,-0.0902028561702063,0.1473617428951029,0.3022847339104559,3
506,0.0942233175277632,0.0103630525206823,0.5897178406368954,-0.1107028587338154,0.146342543793183,0.2586771361003492,3
517,0.1046874713981587,0.0120168688123112,0.5709018003056526,-0.1187786034404754,0.129016125663344,0.2283413875220314,3
528,0.1039128192305687,-0.0008069853834339,0.5539222506241225,-0.1162937620470219,0.0953824551083843,0.2074855933797154,3
540,0.0787207497640676,0.0198758851653592,0.5452040892798364,-0.1082180071624255,0.0515567935342261,0.1847337897119247,3
551,0.0713583793679975,0.073245350248498,0.5465800474738893,-0.0957937696613493,0.0067119161595473,0.1638779645058181,3
562,0.0682565958936722,0.1220600425940361,0.554610229721149,-0.0734301360526501,-0.0228449412891322,0.1468141272868704,3
573,0.081435207154598,0.1522591347553169,0.5626422916927175,-0.0398846958175378,-0.0157105141784917,0.1430221703635021,3
585,0.1046874713981587,0.1634291726594332,0.5651667614394567,-0.0044756143593989,0.0281151473956664,0.1506060842102386,3
596,0.1337528017026096,0.1733588483448281,0.5575933521992392,0.0197516502943902,0.141246531584983,0.1638779645058181,3
607,0.1697963511233011,0.1816313187707832,0.5385498652266297,-0.0019907729659455,0.1728417872375022,0.1506060842102386,3
618,0.2039000953210522,0.1762530268551786,0.5160627233202703,-0.0417483268626278,0.1820146125519825,0.1240623236190796,3
630,0.2221139456713127,0.1667368052426911,0.4990812939144314,-0.0870968044283895,0.1769186003437824,0.0975185630279207,3
641,0.2143642491914477,0.1683940105021308,0.4729230504329553,-0.1150513413502953,0.1616305637191823,0.0880386396557094,3
652,0.2058367257400271,0.1836985891353193,0.4674173379324349,-0.1200210241372021,0.1351313202748631,0.0918305965790777,3
663,0.2039000953210522,0.2031444864332017,0.4687932961264878,-0.1144301310019319,0.1014976664185042,0.0937265750407618,3
674,0.2085511831305575,0.226311470387249,0.4651221945513712,-0.1020058935008556,0.0678640125621452,0.0861426611940253,3
686,0.2225012717551077,0.2370646652506475,0.4580093177668135,-0.083369532160273,0.0434031840202665,0.0614948790645505,3
697,0.2352925569322385,0.2043848486519233,0.4511257673479313,-0.0659756016943534,0.0240383509879871,-0.0295123356066123,3
708,0.234514729960683,0.1626022645136189,0.4437816844733894,-0.0920664973932327,0.0240383509879871,-0.0844958352506144,3
719,0.227152359564613,0.1597046970354576,0.4387346247042197,-0.1274755686734351,0.0118079283677473,-0.126207454599037,3
731,0.2147515752752426,0.1936282648207141,0.462597724804632,-0.1467331403623811,-0.0228449412891322,-0.1508552367285119,3
742,0.2031254431534622,0.1787337512926219,0.485772845808018,-0.1423846577459012,-0.0768626105810896,-0.1660230954857755,3
753,0.1883975275573566,0.1448135724751762,0.5169800287829723,-0.1287179995480983,-0.1431107191918877,-0.1830869327047232,3
764,0.1678565459003607,0.1212331344482215,0.552775618795745,-0.1144301310019319,-0.2083396287007658,-0.2001508009874615,3
776,0.151579325969075,0.1133707291273629,0.5851294335990768,-0.0982786212327391,-0.2592997340841654,-0.2077347458979886,3
787,0.1488680433825102,0.1042713505555933,0.619088532962137,-0.0846119528569997,-0.3255478092977618,-0.1660230954857755,3
798,0.1291017138931044,0.109649642471198,0.6528201856838304,-0.0697028637845336,-0.334720634612242,-0.1129355743034575,3
809,0.089959555802053,0.117922112897153,0.6757659803215409,-0.0442331784340176,-0.3153558015799625,-0.0503681297489283,3
821,0.053919181185327,0.1162682966055242,0.6911383657190338,-0.0268392479680981,-0.2633765471904456,0.0103033363439166,3
832,0.035314829947306,0.1245407670314794,0.7021535501686923,-0.0206271241285918,-0.1777635721501664,0.053910965217814,3
843,0.034152851695921,0.117508658824246,0.6824202043747474,-0.0168998518604752,-0.06361298885893,0.0899346181173936,3
854,0.035702156031101,0.1022006912232464,0.645705429174964,-0.0106877381989053,0.0556335899419055,0.1240623236190796,3
866,0.0434550273149316,0.0546263610964301,0.6044041266616706,-0.0075816762791521,0.1504193402008624,0.1562940506590816,3
877,0.053919181185327,-0.0392819369384806,0.5718209854926634,-0.0200059137802284,0.2054562419919413,0.1752538663397135,3
888,0.0655453133071073,-0.1199495377369283,0.5534635978927717,-0.0957937696613493,0.212590652403981,0.275740973319297,3
899,0.0822098593221879,-0.1340171431192061,0.5452040892798364,-0.1187786034404754,0.1820146125519825,0.3762281113626711,3
910,0.0984870792534735,-0.0885100833569259,0.541531107980411,-0.1119452794305421,0.1402273324830631,0.4842991632527818,3
922,0.1182502339389139,-0.0264546937749246,0.5408431288833846,-0.0864755839020897,0.0943632560064644,0.5753063157963634,3
933,0.1845210919154413,0.081104366601546,0.5403844761520336,-0.0647331708196903,0.0495183786317856,0.6340818034275244,3
944,0.225603055229433,0.1245407670314794,0.5500218226833304,-0.0547937848900039,0.0067119161595473,0.6454577052614198,3
955,0.2748220411070848,0.1626022645136189,0.5589711901176009,-0.0485816610504975,-0.0248833394929719,0.6283938369786813,3
967,0.3252030052361215,0.2052117567977378,0.5674600250962115,-0.0417483268626278,-0.0381329445165307,0.6018500763875224,3
978,0.3577574450986928,0.2465808868631351,0.5814583320239601,-0.0336725821559678,-0.0381329445165307,0.5734103373346794,3
989,0.3763586215327483,0.2672637574119283,0.5956840855930756,-0.0137938001186585,-0.0157105141784917,0.5013630004717295,3
1000,0.3852734710679637,0.2560971084756226,0.6027969623776334,-0.0162786415121119,-0.0126529168727321,0.4463794697639368,3
1012,0.3864354493193486,0.2006603730279476,0.58948851427122,-0.0436119680856543,-0.0330369490069315,0.3857080036710918,3
1023,0.3689962511366781,0.1820447728436905,0.5881125560771668,-0.0827483218119096,-0.0707473992709698,0.3307245040270897,3
1034,0.3314033973808067,0.2387218705100871,0.6156467577526957,-0.1007634728041289,-0.1074386838302899,0.2965967985254036,3
1045,0.2670691698232543,0.2730555034004401,0.6303330437774711,-0.0846119528569997,-0.1308802965716479,0.2890128536148765,3
1057,0.200023659679137,0.2838120872316494,0.6305623701431465,-0.0516877229702507,-0.141072320988048,0.2965967985254036,3
1068,0.1670818937327707,0.2842255413045566,0.6172539220367331,-0.0280816686648248,-0.1339379105760083,0.2852208966915082,3
1079,0.1794826780221411,0.3131842712471158,0.5988965344368412,-0.0075816762791521,-0.0676898019652103,0.2036936053925566,3
1090,0.2252157291456381,0.3669638014353511,0.5773266979931839,0.009191043838404,-0.0228449412891322,0.1638779645058181,3
1102,0.2794731289165901,0.4000604610747932,0.5371720273082681,0.0209940709911169,0.0240383509879871,0.1373342039146591,3
1113,0.3217138956780013,0.4228139909559333,0.4926563962269001,0.0296910362240767,0.0709216265665056,0.1221663451573955,3
1124,0.3348925069389269,0.5055522510867277,0.4818724178672258,0.0582667834943458,0.1229009143532242,0.103206498412973,3
1135,0.307376480969656,0.4695614129369351,0.4763648256423965,0.103615250882171,0.1799761976495419,0.0690787929112869,3
1147,0.2705582793813745,0.3963359854508175,0.4664981527454243,0.13467584972383,0.2238018592237001,0.0235752166394961,3
1158,0.2194026630847479,0.3235274010054177,0.4704004604105251,0.13467584972383,0.2482627044641797,-0.0257203476194535,3
1169,0.1694090250395061,0.2751261627327869,0.4882973155547571,0.109827364543741,0.2635507243901789,-0.093975727559035,3
1180,0.1523539781366651,0.2511322706329252,0.5098671519984146,0.0147819471516105,0.2747619479084989,-0.272198168914202,3
1192,0.1566177398623753,0.2378915733964619,0.5289125186953328,-0.0342937925043312,0.2625315252882591,-0.3214937642369423,3
1203,0.1562304137785804,0.2407891408746232,0.5454334156455118,-0.0653543913459901,0.2401090949502201,-0.3214937642369423,3
1214,0.1488680433825102,0.2867096547098106,0.5683792102832221,-0.0665968018647804,0.2156482497097406,-0.2987419605691516,3
1225,0.1496426955501002,0.2982931466868343,0.5725089645896897,-0.0336725821559678,0.1962834333760619,-0.2684062119908337,3
1237,0.1480933912149203,0.3044983467482534,0.5592005164832763,0.0334183084921932,0.1911874211678619,-0.2153186597447251,3
1248,0.1426676512378251,0.3193894713085348,0.5371720273082681,0.1210091813480906,0.2003602464823421,-0.1318953899840893,3
1259,0.1298763660606943,0.3309729632855585,0.5215684358207909,0.2135697573467676,0.2197250628160208,-0.0389922589788236,3
1270,0.1039128192305687,0.2858827465639962,0.5206511303580889,0.3322212494001967,0.2635507243901789,0.0501189772306551,3
1282,0.0566304637718918,0.1340569886439669,0.5328129466361249,0.306751543693808,0.2839347565243783,0.0349511184733915,3
1293,0.0047001953076751,-0.0380381857519484,0.5385498652266297,0.2172970296148841,0.3175684437779388,0.0008234129717054,3
1304,-0.0193298959074409,-0.1058853213224614,0.5335009257331512,0.0911910133810948,0.3593557071482574,-0.0295123356066123,3
1315,0.0151643491780706,-0.0206629477864127,0.4926563962269001,-0.0324301512813047,0.3878933153992146,-0.0352002709916647,3
1327,0.0457789838177014,0.0327031283289152,0.4724643977016046,-0.1256119376283451,0.3797397392824567,-0.0086565104005057,3
1338,0.0794954019316576,0.0695208746245224,0.4619097457076057,-0.1740664669359236,0.3369332768102183,0.0444310418456027,3
1349,0.1000363835886534,0.0881364748087795,0.4451595223917511,-0.1722028358908335,0.2798579601166989,0.1240623236190796,3
1360,0.0996490575048585,0.0980661504941742,0.4114297493943665,-0.1287179995480983,0.2238018592237001,0.2150695072264519,3
1372,0.081435207154598,0.1063386209201295,0.3760928121129446,-0.0206271241285918,0.1106704917329844,0.3022847339104559,3
1383,0.0566304637718918,0.0964089452347347,0.3650776276632858,0.0073274127933139,0.0535951917380658,0.2738449948576129,3
1394,0.035314829947306,0.0500783662944508,0.3880234223009963,0.0079486231416772,-0.0034800915582519,0.2283413875220314,3
1405,-0.0274669184711009,-0.1182957214452995,0.462597724804632,-0.0168998518604752,-0.0656514037613706,0.1961096915458201,3
1416,-0.0766859043487527,-0.1745593650387889,0.4821017442329014,-0.0672180223910802,-0.1288418983678082,0.188525746635293,3
1428,-0.1185425198303345,-0.1695945271960915,0.4951808659736392,-0.1349301132096682,-0.191013193872326,0.188525746635293,3
1439,-0.1565226996700009,-0.1116770673109733,0.5117017629238184,-0.1958088901962593,-0.2501269087696852,0.1904217250969771,3
1450,-0.1937250525381118,-0.0351440072415977,0.5376306800396189,-0.2287331099050719,-0.3082213744693219,0.188525746635293,3
1462,-0.2216284045911778,0.0376645772038019,0.5674600250962115,-0.2107179792687254,-0.3622390771584811,0.1961096915458201,3
1473,-0.2417820601643786,0.0951685830160129,0.5885712088085179,-0.1722028358908335,-0.3489894554363215,0.2150695072264519,3
1484,-0.2607705626822291,0.1212331344482215,0.6073872491397608,-0.1218846653602285,-0.3235094110939221,0.2416132988814015,3
1495,-0.2766604565297197,0.1137841832002702,0.6294138585904602,-0.0709452946591967,-0.2888565414370425,0.2700530379342446,3
1507,-0.2743365000269498,0.0463538906704751,0.649147204384405,-0.0361574235494212,-0.2521653236721257,0.2890128536148765,3
1518,-0.2638723461565544,0.0194624310924519,0.6459347555406394,-0.0268392479680981,-0.2226084662234461,0.2947008200637195,3
1529,-0.2495317566442437,0.0173951607279158,0.6498370632057402,-0.0392634854691744,-0.1971284051824459,0.2965967985254036,3
1540,-0.2371309723548734,0.0273248364133107,0.6624556524908184,-0.0547937848900039,-0.163494751326087,0.3098686788209831,3
1552,-0.2309305802101883,0.0467673447433823,0.67186367265644,-0.0591422675064837,-0.1155922933442494,0.3383084178738261,3
1563,-0.226279492400683,0.0591777448662204,0.6686512238126741,-0.0380210647724477,-0.0014416933544122,0.4046678504155142,3
1574,-0.217755143753228,0.0612450152307565,0.6546547966092344,-0.0411271165142645,0.0546143908399856,0.4103557858005666,3
1585,-0.1944997047057018,0.0790337072691993,0.6351507771809651,-0.0585210571581204,0.1014976664185042,0.3932919485816188,3
1597,-0.108465692043734,0.1555701563063854,0.6133516143716322,-0.0765361979724033,0.1392081333811433,0.3667481879904599,3
1608,-0.0766859043487527,0.1845254972811338,0.6002724926308942,-0.0790210495437931,0.1718225881355824,0.3553722861565646,3
1619,-0.0596340322498771,0.191560994456178,0.5773266979931839,-0.0672180223910802,0.1891490229640222,0.3648522095287758,3
1630,-0.0472332479605069,0.1890768810509239,0.5598884955803027,-0.0516877229702507,0.1860914089596618,0.3762281113626711,3
1642,-0.0313433541130163,0.2068655730893667,0.5513977808773833,-0.0355362132010579,0.1728417872375022,0.3838120252094076,3
1653,-0.0015001968370099,0.232516670448668,0.5426796195330973,0.0154031574999739,0.1524577551033029,0.3857080036710918,3
1664,0.0283397856350309,0.2316863733350429,0.5348768839272043,0.0340395188405565,0.1351313202748631,0.3838120252094076,3
1675,0.0388039395054263,0.219689427285112,0.5344182311958533,0.0390092118053998,0.1127088899368241,0.3762281113626711,3
1686,0.0388039395054263,0.2114169568591569,0.536254721845566,0.0315546774471031,0.0872288455944247,0.3610602215416169,3
1698,0.0372546351702464,0.1588777888896431,0.5445142304585012,0.016645588374637,0.0637872161544659,0.3572682646182487,3
1709,0.0419025481757861,0.1456404806209907,0.5536929242584471,0.0042213508735607,0.0546143908399856,0.3876039821327758,3
1720,0.0577924420232768,0.1563970644521997,0.5458920683768629,0.0017364993021709,0.0688832116640651,0.4444834913022527,3
1731,0.0818225332383929,0.1592912429625504,0.5321249675390984,0.0048425612219241,0.0933440569045446,0.4937790555612024,3
1743,0.1058494496495436,0.1576374266709215,0.5332715993674759,-0.0001271317429191,0.102516865520424,0.5051549573950977,3
1754,0.1314288451998397,0.1762530268551786,0.540613802517709,-0.0305665202362146,0.0586912039462658,0.4558593931361481,3
1765,0.1581702190015208,0.2188625191392976,0.5392378443236562,-0.0361574235494212,0.0250575500899069,0.4312116110066732,3
1776,0.1752220911003963,0.2631292166828561,0.5298298241580347,-0.0330513616296681,-0.0065377055626123,0.4103557858005666,3
1787,0.1787080258545511,0.2742992545869725,0.5174386815143233,-0.0262180376197348,-0.0371137621132117,0.395187927043303,3
1799,0.1477060651311253,0.1965224433310647,0.5206511303580889,-0.0231119756999816,-0.06361298885893,0.38949996059446,3
1810,0.1325908234512247,0.1886634269780168,0.5305178032550611,-0.0274604583164615,-0.0819586227892897,0.3913959390561441,3
1821,0.1112751896266388,0.2010738271008549,0.5449728831898522,-0.0398846958175378,-0.0941890621081303,0.3970839055049872,3
1832,0.0833718375735729,0.2163817947018542,0.5672306987305361,-0.050445302273524,-0.1033618707240097,0.4008758624283554,3
1844,0.062443529832782,0.2461674327902278,0.584670780867726,-0.0473392403537708,-0.1003042567196493,0.4084598073388825,3
1855,0.0562431376880968,0.2742992545869725,0.591095678555257,0.0060849819186508,-0.0707473992709698,0.4255236445578302,3
1866,0.0597322472462172,0.2759530708786015,0.5933889422120119,0.0383880014570364,-0.0615745906550904,0.4255236445578302,3
1877,0.0659326393909023,0.2536129950703685,0.5931596158463365,0.0595092041910725,-0.0574977775488102,0.4141477427239348,3
1889,0.0748443141221523,0.1861827025405734,0.5777872304488436,0.0582667834943458,-0.0564785784468903,0.395187927043303,3
1900,0.0729076837031774,0.1410890968512004,0.5787045359115457,0.0315546774471031,-0.0544401802430506,0.3724361233755123,3
1911,0.061281551581397,0.1166817506784314,0.5922423103836345,-0.0094453175021786,-0.0422097576228109,0.3648522095287758,3
1922,0.0492680933758218,0.125781129250201,0.6032556151089844,-0.0510665126218873,-0.0146913150765718,0.3743321018371964,3
1934,0.0469409620690863,0.1601181511083649,0.6105996979835263,-0.0815058909372465,0.0148655256735068,0.3913959390561441,3
1945,0.0523667020461815,0.2097631405675279,0.6259720833810193,-0.0964149800097126,0.0342303587057863,0.3932919485816188,3
1956,0.062443529832782,0.2656099411202995,0.6482298989217029,-0.083369532160273,0.0311727614000268,0.3705401449138282,3
1967,0.0678692698098771,0.3016007792700921,0.6638334904091803,-0.0665968018647804,0.0270959482937466,0.3439963843226692,3
1978,0.0608942254976021,0.3061521630398822,0.6697997353653605,-0.0547937848900039,0.0301535622981069,0.3288285255654056,3
1990,0.0252380021607055,0.2958090332815802,0.6977925897722402,-0.0510665126218873,0.0535951917380658,0.3364124394121421,3
2001,0.0139991961227202,0.3123573631013012,0.7106423851473028,-0.0516877229702507,0.1065936786267042,0.3667481879904599,3
2012,0.0105132613685653,0.3409026389709532,0.7099544060502763,-0.0541725745416405,0.185072209857742,0.4046678504155142,3
2023,0.0171009795970455,0.3731690014967702,0.6966459579438629,-0.0560362055867306,0.2717043506027393,0.4312116110066732,3
2034,0.0310510682215957,0.3934418069404669,0.6785178967096466,-0.0572786364613937,0.3440676872222581,0.4312116110066732,3
2046,0.0481061151244368,0.4070925692820267,0.6631455113121536,-0.0554149952383672,0.4052197502276544,0.3913959390561441,3
2057,0.0686439219774672,0.4203298775506793,0.6528201856838304,-0.0516877229702507,0.396046941611775,0.3629562310670916,3
2068,0.0903468818858479,0.4273653747257235,0.6500663895714156,-0.0417483268626278,0.3766821419766972,0.3364124394121421,3
2079,0.1066241018171336,0.4294326450902596,0.6532788384151816,-0.0218695550032549,0.3552788940419772,0.3136606357443513,3
2091,0.117088255687529,0.4029580285529545,0.6521303268624951,0.0029789199988976,0.3359140610096977,0.2833249182298241,3
2102,0.1229013217484192,0.3731690014967702,0.6381338996590552,0.0265849743043235,0.3216452401856183,0.2454052558047698,3
2113,0.1376292373445249,0.3487616553240011,0.6142707995586429,0.0414940633767896,0.3083956017648578,0.1999016484691883,3
2124,0.1562304137785804,0.3326301685449981,0.5849001072334014,0.0464637563416328,0.2859731714268188,0.1468141272868704,3
2136,0.1690216989557111,0.3152549305794626,0.5617249862300154,0.0446001252965428,0.24622430626034,0.0861426611940253,3
2147,0.1736696119612509,0.291674492552508,0.5507098017803569,0.035903160063583,0.1534769542052227,-0.0086565104005057,3
2158,0.1697963511233011,0.272642049327533,0.5422209668017464,0.0346607291889199,0.1351313202748631,-0.0048645224133469,3
2169,0.1589448711691107,0.254439903216183,0.5309764559864122,0.0371455807603097,0.1473617428951029,0.0330551400117074,3
2181,0.1469282381595698,0.2064521190164594,0.4986226411830804,0.0352819497152196,0.190168222065942,0.0899346181173936,3
2192,0.1558430876947854,0.1882499729051095,0.4791186217548113,0.0197516502943902,0.2492819035660995,0.1373342039146591,3
2203,0.1779333736869611,0.1944551729665286,0.4690226224921634,-0.0131725897702951,0.307376402662938,0.1600860075824499,3
2214,0.206998703991412,0.2292056488975996,0.4704004604105251,-0.0535513540153407,0.3440676872222581,0.1543980411336069,3
2226,0.234514729960683,0.2689209626713679,0.4832502557855875,-0.0846119528569997,0.350182898532378,0.1202703666957114,3
2237,0.253506407282499,0.2862962006369035,0.5123916217451537,-0.0995210419294658,0.2971843782465379,0.0595989006028663,3
2248,0.2581574950920042,0.2697478708171824,0.5378600064052944,-0.1032483141975823,0.2829155574224584,0.0899346181173936,3
2259,0.2515666020595586,0.2349973948861114,0.5374013536739435,-0.1144301310019319,0.2676275374964592,0.1335422469912909,3
2271,0.2453662099148734,0.213484227223693,0.5247808846645564,-0.1243695169316183,0.2288978714319002,0.1525020626719228,3
2282,0.2697836272137846,0.2321032163757608,0.5084893140800528,-0.1268543583250718,0.1606113646172625,0.141126191901818,3
2293,0.2868354993126601,0.2387218705100871,0.5188146397083762,-0.1243695169316183,0.0760176220761048,0.1069984864001319,3
2305,0.2926485653735503,0.2254811732736238,0.5509391281460325,-0.129960420244825,0.0046735179557076,0.0690787929112869,3
2316,0.2724949098003494,0.215968340628947,0.5800804941055985,-0.1554301055953409,-0.0177489290809322,0.0444310418456027,3
2327,0.2399404699377783,0.2412025949475304,0.5748041079707534,-0.1902179868830527,0.0077311152614671,0.0463270203072869,3
2338,0.2132022709400627,0.3036714386024389,0.5458920683768629,-0.2088543482236354,0.0250575500899069,0.0861426611940253,3
2350,0.1891721797249465,0.3802044986718144,0.5174386815143233,-0.1678543430964172,-0.0177489290809322,0.1069984864001319,3
2361,0.1697963511233011,0.4294326450902596,0.5018350900268461,-0.0920664973932327,-0.0646322046594507,0.1297502900679226,3
2372,0.1779333736869611,0.3512457687292552,0.5263880489485936,-0.0082028866275155,-0.0941890621081303,0.1562940506590816,3
2383,0.2151389013590376,0.295395579208673,0.5598884955803027,0.0446001252965428,-0.0921506472056898,0.1828378112502406,3
2395,0.252731755114909,0.2747127086598798,0.5947667801303738,0.043978904770243,-0.0625937897570102,0.1999016484691883,3
2406,0.2775333236936497,0.2833986331587421,0.6108290243492017,0.0011152889538075,-0.0197873272847719,0.2074855933797154,3
2417,0.2961376749316707,0.3102900927367651,0.6216130027088761,-0.0585210571581204,0.0169039405759473,0.1942137130841359,3
2428,0.2721075837165545,0.346694384959465,0.6450174500779373,-0.1697179843194437,0.0535951917380658,0.1487101057485545,3
2440,0.206998703991412,0.3822717690363504,0.6461659616306237,-0.1771725288556767,0.0597104030481857,0.141126191901818,3
2451,0.1647579372300009,0.4166087908945142,0.6165640632153978,-0.1405210267008112,0.0332111596038665,0.1259583020807638,3
2462,0.1566177398623753,0.4348109370058642,0.5876539033458161,-0.0839907425086363,-0.0238641403910521,0.108894464861816,3
2473,0.1891721797249465,0.4066791152091195,0.5674600250962115,-0.0342937925043312,-0.0809394236873698,0.1051025079384478,3
2485,0.2306414691227332,0.3826852231092577,0.5704431475743016,-0.0113089485472686,-0.1166114924461693,0.0994145414896048,3
2496,0.2647452133204844,0.375239660829117,0.5936182685776875,-0.0249756067450716,-0.1298610974697281,0.07476675936013,3
2507,0.2426549273283086,0.3888904231706768,0.6353801035466405,-0.0672180223910802,-0.1135538951404098,0.0330551400117074,3
2518,0.1593321972529056,0.3934418069404669,0.6454761028092884,-0.1150513413502953,-0.0595361924512507,0.0065113794205484,3
2529,0.081047881070803,0.3731690014967702,0.6122049825432548,-0.1442482989689277,0.0230191518860672,0.0842466827323412,3
2541,0.0384166134216313,0.3595182391552104,0.5748041079707534,-0.1256119376283451,0.0046735179557076,0.1278542805424479,3
2552,0.0163263274294555,0.3682075526218835,0.5575933521992392,-0.0933089180899594,-0.0228449412891322,0.1562940506590816,3
2563,0.088410251466873,0.4116439530518169,0.5598884955803027,-0.0603846882032104,-0.0391521603170514,0.1714619094163452,3
2574,0.1616561537556755,0.4451540667641662,0.5849001072334014,-0.044854388782381,-0.0391521603170514,0.167669952492977,3
2585,0.1868482232221766,0.4778338833628903,0.6163347368497224,-0.057899846809757,-0.0228449412891322,0.1430221703635021,3
2597,0.1492553694663052,0.4840390834243093,0.6291845322247848,-0.0945513489646225,0.0026351197518679,0.1164783787085525,3
2608,0.0926740131925834,0.4815583589868661,0.6135828204616165,-0.1305816305931883,0.0118079283677473,0.0975185630279207,3
2619,0.0698090750328176,0.499760505098216,0.5922423103836345,-0.1436270784426279,-0.0146913150765718,0.0709748024367617,3
2630,0.0756221410937078,0.5287192350407751,0.5855880863304278,-0.1001422522778291,-0.1359763087798479,-0.0276163571449283,3
2642,0.0748443141221523,0.5419565433094277,0.5929302894806611,-0.0846119528569997,-0.1726675766405672,-0.078807899865562,3
2653,0.0554684855205069,0.5196164675011948,0.6083045546024627,-0.0827483218119096,-0.1696099626362069,-0.1072476078546145,3
2664,0.0120625657037453,0.4269519206528162,0.6477712461903521,-0.0808846805888831,-0.118649890650009,-0.0750159429421938,3
2675,-0.0084784159532505,0.4426699533589121,0.6470832670933256,-0.0684604430878069,-0.0208065263866917,0.0273671735628644,3
2687,-0.0057639585627202,0.475353158925447,0.6307916965088222,-0.038642275120811,0.0933440569045446,0.1468141272868704,3
2698,0.0236886978255256,0.4869366509024706,0.6048627793930215,0.0060849819186508,0.1860914089596618,0.2359253324325585,3
2709,0.0729076837031774,0.4745262507796325,0.5835222693150396,0.0526758801811392,0.2360322818439399,0.2871168751531924,3
2720,0.1275524095579244,0.4637696669484233,0.5759507397991309,0.0924334340778215,0.2421474931540598,0.28142893976814,3
2732,0.1674692198165657,0.4645965750942378,0.5768680452618329,0.0862213204162515,0.2329746845381804,0.2473012342664539,3
2743,0.1876228753897666,0.4645965750942378,0.5819169847553112,0.0793879964063182,0.2227826601217803,0.2150695072264519,3
2754,0.1922739631992719,0.4455675208370734,0.5883418824428425,0.0719334518700852,0.2136098682045017,0.1999016484691883,3
2765,0.1961472240372216,0.3636561688520933,0.6142707995586429,0.0619940557624623,0.2176866479135802,0.2283413875220314,3
2777,0.200023659679137,0.3661368932895367,0.6076165755054362,0.0607516350657356,0.2360322818439399,0.2965967985254036,3
2788,0.2139769231076526,0.397993190710257,0.5922423103836345,0.0675849692536053,0.2492819035660995,0.3553722861565646,3
2799,0.2352925569322385,0.4224005368830261,0.5874245769801405,0.0781455655316551,0.2360322818439399,0.3705401449138282,3
2810,0.2461408620824633,0.4157818827486998,0.5959134119587512,0.0880849514613416,0.1983218315799016,0.3458923627843533,3
2822,0.2438169055796935,0.3992335529289788,0.6066973903184255,0.0831152686744347,0.123920113455144,0.2378213108942426,3
2833,0.2403277960215732,0.3938552610133741,0.6108290243492017,0.0669637589052419,0.0994592682146645,0.1942137130841359,3
2844,0.2364545351836234,0.3901307853893985,0.6048627793930215,0.0501910286097494,0.0841712482886652,0.1771498448013976,3
2855,0.2209519674199277,0.3620023525604645,0.5844414545020503,0.0390092118053998,0.0821328333862247,0.1847337897119247,3
2866,0.2135895970238577,0.3450405686678361,0.5743454552394025,0.0327970981438298,0.0933440569045446,0.2112775503030837,3
2878,0.2170755317780125,0.3409026389709532,0.565854740536483,0.0290698258757133,0.107612877728624,0.2321333755091903,3
2889,0.2287016638997928,0.3516592228021625,0.5612644537743557,0.022857702036207,0.107612877728624,0.2321333755091903,3
2900,0.2411056229931286,0.3574509687906743,0.565854740536483,0.009191043838404,0.0862096464925049,0.2207574736752949,3
2911,0.2434295794958985,0.3591047850823031,0.5787045359115457,-0.0088240969758788,0.0586912039462658,0.2169655167519267,3
2922,0.2287016638997928,0.3715151852051413,0.5791631886428966,-0.0299453098878513,0.0770368378766255,0.2719490163959288,3
2934,0.2097131613819424,0.3818583149634433,0.5580538846548989,-0.0305665202362146,0.0902864429001843,0.2984927769870877,3
2945,0.2042874214048472,0.3797910445989072,0.5252395373959075,-0.0324301512813047,0.0739792238722651,0.2833249182298241,3
2956,0.2538937333662939,0.3971662825644427,0.5073426822516754,-0.0485816610504975,0.0321919605019466,0.222653452136979,3
2967,0.2713329315489645,0.4112304989789096,0.5387791915923051,-0.0839907425086363,-0.0085761037664519,0.1468141272868704,3
2979,0.2546683855338839,0.4401892289214688,0.5731969436867164,-0.129960420244825,-0.0228449412891322,0.0842466827323412,3
2990,0.2128117700523022,0.4691479588640279,0.5800804941055985,-0.1684755636227169,-0.0126529168727321,0.0558069436794981,3
3001,0.1907214840601264,0.4799045426952371,0.5507098017803569,-0.181521021650093,-0.0085761037664519,0.0558069436794981,3
3012,0.2101004874657373,0.4674941425723991,0.5094084992670636,-0.1454907196656544,-0.1257842843634479,0.015991271728969,3
3023,0.2321907734579132,0.454666899408843,0.5045888861392607,-0.1398998061745114,-0.2032436164925658,-0.0257203476194535,3
3035,0.1961472240372216,0.4596317372515404,0.5470387002052403,-0.1411422370491745,-0.2307620757374057,-0.0314083140682965,3
3046,0.1380165634283198,0.454666899408843,0.583751595680715,-0.1324452718162148,-0.2144548400108857,0.0084073578822325,3
3057,0.081435207154598,0.4286057369444452,0.6101391655278665,-0.1237482964053186,-0.179801987052607,0.0614948790645505,3
3069,0.0446170055663164,0.4455675208370734,0.6076165755054362,-0.118157393092112,-0.1288418983678082,0.1107904433235002,3
3080,0.0434550273149316,0.4765935211441686,0.5988965344368412,-0.104490734894309,-0.0697282001690499,0.1506060842102386,3
3091,0.0670946176422872,0.4914880346722608,0.6014210041835805,-0.0734301360526501,-0.0218257254886115,0.167669952492977,3
3103,0.1240632999998041,0.4890039212670067,0.6073872491397608,-0.0007483522692188,0.0199615378817069,0.1695659309546611,3
3114,0.1864608971383817,0.499760505098216,0.6202370445148232,0.0023577096505343,0.0240383509879871,0.1600860075824499,3
3125,0.1872355493059717,0.526651964676239,0.6392805314874327,-0.0019907729659455,0.0291343464975863,0.1562940506590816,3
3136,0.1496426955501002,0.5407161810907061,0.6390512051217573,0.0073274127933139,0.0281151473956664,0.161981986044134,3
3148,0.1128244939618187,0.5456810189334034,0.617712574768084,0.0296910362240767,0.0107887292658274,0.1600860075824499,3
3159,0.1132118200456137,0.5258216675626138,0.6174832484024085,0.0576455731459824,-0.0014416933544122,0.1468141272868704,3
3170,0.1205773652456493,0.4832121752784949,0.6156467577526957,0.0787667860579549,0.0067119161595473,0.1335422469912909,3
3181,0.1194122121902989,0.4434968615047265,0.6133516143716322,0.0787667860579549,0.0260767491918267,0.1259583020807638,3
3192,0.1252284530551546,0.4323302125684208,0.608992533699489,0.0564031422713193,0.0464607813260261,0.1221663451573955,3
3204,0.1387912155959098,0.4385354126298399,0.6016503305492559,0.0023577096505343,0.0617488012520253,0.1278542805424479,3
3215,0.1570050659461703,0.4497020615661456,0.5917836576522837,-0.0125513692439954,0.0515567935342261,0.1259583020807638,3
3226,0.1690216989557111,0.4674941425723991,0.589947167002571,-0.017521072386775,0.0332111596038665,0.1145824002468684,3
3237,0.1585575450853157,0.485696288683749,0.5936182685776875,-0.0125513692439954,0.0179231396778672,0.0994145414896048,3
3249,0.117088255687529,0.4666638454587739,0.5963720646901021,-0.0019907729659455,0.0077311152614671,0.0918305965790777,3
3260,0.0911215340534379,0.4439137045454445,0.6032556151089844,0.0079486231416772,0.0087503143633869,0.0975185630279207,3
3271,0.0670946176422872,0.4232274450288406,0.6135828204616165,0.0122971057581571,0.0260767491918267,0.1221663451573955,3
3283,0.0597322472462172,0.4104035908330952,0.6213836763432007,0.0104334645351307,0.057672004844346,0.1562940506590816,3
3294,0.0872482732154882,0.4050252989174905,0.6202370445148232,0.0079486231416772,0.0964016542103041,0.1904217250969771,3
3305,0.1294890399768993,0.4079194774278411,0.6145001259243184,-0.0075816762791521,0.146342543793183,0.2321333755091903,3
3316,0.1546811094434004,0.4224005368830261,0.6099098391621911,-0.0181422827351383,0.1494001410989426,0.222653452136979,3
3327,0.1705710032908911,0.4439137045454445,0.6048627793930215,-0.0218695550032549,0.1371697184787028,0.2055896149180313,3
3339,0.1872355493059717,0.4633562128755161,0.589947167002571,-0.0181422827351383,0.1137280890387439,0.1980056700075042,3
3350,0.1806478310774915,0.4670772995316811,0.5892591879055443,-0.0125513692439954,0.0902864429001843,0.1999016484691883,3
3361,0.1651452633137958,0.4654234832400522,0.5940788010333472,-0.0050968348856987,0.0770368378766255,0.2017976269308724,3
3372,0.15196665205287,0.4525996290443068,0.5970600437871286,0.0029789199988976,0.0780560369785453,0.2017976269308724,3
3383,0.1523539781366651,0.4339840288600497,0.5938475949433629,0.0079486231416772,0.0913056587007049,0.2074855933797154,3
3395,0.1678565459003607,0.4137112234163529,0.5858174126961033,0.0004940786054442,0.1259585116589837,0.222653452136979,3
3406,0.1802605049936965,0.3967494395237247,0.579392515008572,-0.0144150104670218,0.129016125663344,0.2150695072264519,3
3417,0.1771587215193712,0.3897173313164912,0.5768680452618329,-0.0299453098878513,0.1218817152513043,0.2074855933797154,3
3428,0.1682438719841556,0.3959225313779103,0.5722796382240143,-0.038642275120811,0.1055744795247844,0.2074855933797154,3
3440,0.1581702190015208,0.4211601746643044,0.5626422916927175,-0.0398846958175378,0.0790752360804652,0.2131735287647678,3
3451,0.1566177398623753,0.436464753297493,0.5635595971554195,-0.0349150028526945,0.0515567935342261,0.2207574736752949,3
3462,0.1473187390473304,0.4426699533589121,0.5695258421115996,-0.0249756067450716,0.0301535622981069,0.2302373970475062,3
3473,0.1318161712836347,0.4426699533589121,0.579392515008572,-0.0137938001186585,0.0199615378817069,0.2473012342664539,3
3484,0.1298763660606943,0.444740612691259,0.5878832297114914,-0.0057180452340621,0.0250575500899069,0.2624690930237175,3
3495,0.1430549773216201,0.4497020615661456,0.5883418824428425,-0.0075816762791521,0.0668448134602254,0.2643650714854016,3
3507,0.1655325893975908,0.4604586453973548,0.5816876583896358,-0.0137938001186585,0.0780560369785453,0.2510931911898222,3
3518,0.1872355493059717,0.4765935211441686,0.5750334343364291,-0.0156574311637485,0.0729600247703453,0.2302373970475062,3
3529,0.198474355343957,0.4877635590482851,0.5699844948429506,-0.0113089485472686,0.0495183786317856,0.2074855933797154,3
3540,0.1759967432679862,0.4827987212055877,0.5709018003056526,-0.0026119833143089,0.0199615378817069,0.188525746635293,3
3551,0.1573923920299652,0.4658369373129595,0.5743454552394025,0.0067061922670141,-0.0034800915582519,0.1790458543268724,3
3563,0.144216955573005,0.4488751534203312,0.5775560243588593,0.0104334645351307,-0.0116337177708123,0.1771498448013976,3
3574,0.1349147799539945,0.446807883055795,0.5803098204712741,0.0073274127933139,-0.0034800915582519,0.1828378112502406,3
3585,0.1329781495350196,0.4505323586797707,0.584670780867726,0.0017364993021709,0.013846326571587,0.1942137130841359,3
3596,0.1387912155959098,0.4559106505953754,0.5906351460995973,-0.0075816762791521,0.0617488012520253,0.222653452136979,3
3607,0.1473187390473304,0.471215229228564,0.5954547592274002,-0.0063392555824254,0.085190447390585,0.2283413875220314,3
3619,0.1604941755042906,0.4877635590482851,0.5954547592274002,-0.0013695626175822,0.0953824551083843,0.2188614952136108,3
3630,0.1794826780221411,0.4943822131826114,0.5913250049209327,0.0029789199988976,0.0902864429001843,0.1999016484691883,3
3641,0.1953725718696316,0.4827987212055877,0.5754920870677799,0.0042213508735607,0.0719408256684254,0.1771498448013976,3
3652,0.1887848536411515,0.4662503913858666,0.5704431475743016,0.0036001405251974,0.0474799804279459,0.1600860075824499,3
3663,0.1736696119612509,0.4472213371287023,0.5683792102832221,0.0023577096505343,0.0250575500899069,0.1525020626719228,3
3675,0.1581702190015208,0.4397757748485616,0.570672473939977,0.0017364993021709,0.0128271274696671,0.1600860075824499,3
3686,0.15196665205287,0.4368782073704003,0.5784752095458701,0.0042213508735607,0.013846326571587,0.1752538663397135,3
3697,0.1546811094434004,0.4232274450288406,0.5835222693150396,0.0079486231416772,0.0393263709139863,0.188525746635293,3
3708,0.1647579372300009,0.4166087908945142,0.584670780867726,0.0004940786054442,0.0474799804279459,0.188525746635293,3
3720,0.1787080258545511,0.4244678072475622,0.5839809220463906,-0.0094453175021786,0.041364769117826,0.1847337897119247,3
3731,0.1872355493059717,0.4331571207142353,0.5807684732026249,-0.0168998518604752,0.0179231396778672,0.1790458543268724,3
3742,0.1825844614964664,0.4645965750942378,0.5943081273990228,-0.0168998518604752,-0.0116337177708123,0.167669952492977,3
3753,0.1674692198165657,0.4658369373129595,0.6101391655278665,-0.0075816762791521,-0.0299793517011719,0.1581900291207657,3
3765,0.1542937833596055,0.4534265371901214,0.6223009818059027,0.0098122541867673,-0.0269217376968116,0.1657739429675022,3
3776,0.1511919998852801,0.4480482452745167,0.6307916965088222,0.0259637639559601,-0.0075569046645321,0.1866297681736088,3
3787,0.1558430876947854,0.4550803534817502,0.6365286150993268,0.0352819497152196,0.0209807369836267,0.1961096915458201,3
3798,0.1632054580908554,0.4662503913858666,0.6376752469277043,0.0446001252965428,0.1004784673165843,0.2017976269308724,3
3809,0.1666945676489758,0.47949108862233,0.6298743910461201,0.0576455731459824,0.1381889342792235,0.2036936053925566,0
3821,0.1666945676489758,0.5014143213898449,0.6165640632153978,0.0818728377997716,0.1626497628211022,0.188525746635293,0
3832,0.1845210919154413,0.593668803133127,0.601191677817905,0.1234940329194804,0.1779377994457023,0.1487101057485545,0
3843,0.1895595058087414,0.6437238576973866,0.5977499026084637,0.2036303612391447,0.1973026324779818,0.1013105199512889,0
3854,0.1868482232221766,0.6838526255440622,0.6005036987208785,0.33097882870347,0.2227826601217803,0.0709748024367617,0
3866,0.1829717875802614,0.7186031014751332,0.6078459018711116,0.499948440397822,0.2492819035660995,0.0387430753967597,0
3877,0.1883975275573566,0.7032985228419445,0.6115170034462282,0.7061908358409578,0.2839347565243783,-0.0295123356066123,0
3888,0.1845210919154413,0.6366917494901531,0.6140414731929675,1.1689936547667243,0.4164309737459744,-0.2039427579108298,0
3899,0.1655325893975908,0.524167851270985,0.6105996979835263,1.3845542766808652,0.5214087484213313,-0.2703021904525178,0
3911,0.1709583293746861,0.3533130390937913,0.5940788010333472,1.5566299808287796,0.6406553773179694,-0.317701807313574,0
3922,0.1821971354126714,0.195282081112343,0.5637889235210949,1.6796297926517063,0.7405370896893239,-0.3537254912769442,0
3933,0.2252157291456381,-0.0880966292840187,0.4584679704981645,1.76473582411415,0.7772283408514423,-0.3897491441765239,0
3945,0.2996236096858254,-0.1977263489928363,0.4045443192511753,1.8212661184842611,0.7415562887912437,-0.4276687755377876,0
3956,0.3670564459137376,-0.280878063196538,0.3600305678941164,1.8641297343006968,0.6590010112483291,-0.4655884379628419,0
3967,0.3872101014869386,-0.389264031718823,0.3198758972092005,1.9038872983753152,0.5611576135878101,-0.4750683613350531,0
3979,0.3647324894109679,-0.5022013840108983,0.2760482452248592,1.9510994069861671,0.3868741162972947,-0.4636924595011578,0
3990,0.336054485190312,-0.6002476117426924,0.2402526552120863,1.944887293324597,0.3308180655000985,-0.5129880237601074,0
4001,0.3271396356550963,-0.7065663099004413,0.221665941246519,1.912584273786212,0.3104340166672983,-0.5774514467763208,0
4013,0.3399309208322272,-0.7673779482959104,0.1968855356834049,1.8690994374434768,0.3104340166672983,-0.6286429894969545,0
4024,0.3286889399902764,-0.7946828619468406,0.1177228261419505,1.8498418657545304,0.2920883827369386,-0.6817305417430631,0
4035,0.3244283530685316,-0.8476354839892615,0.0718312368665298,1.8846297368643057,0.2401090949502201,-0.7746337659397008,0
4047,0.3410928990836122,-0.9328544685574992,0.013777831313073,1.9740842509432297,0.1626497628211022,-0.9168325233314976,0
4058,0.341867551251202,-1.05117350173299,-0.0479466758155003,2.0958417947384755,0.0556335899419055,-1.0552391684809728,0
4069,0.3007855879372105,-1.1711429622322986,-0.0954454293749582,2.3635841368048203,-0.1869363974646467,-1.2581093919656146,0
4081,0.2197899891685428,-1.2973176227930263,-0.1300925078350448,2.508326514379192,-0.2542037218759654,-1.3377407048028822,0
4092,0.1353021060377895,-1.461140326762987,-0.1656587714821421,2.6213872456105243,-0.2613381322880051,-1.388932247523516,0
4103,0.0787207497640676,-1.6588865985182033,-0.2120090134889138,2.6654932923016226,-0.223627665325366,-1.396516192434043,0
4115,0.0198122621836103,-1.9712240388571245,-0.3476198440240964,2.635675124334627,-0.1624755522241672,-1.3699724007790932,0
4126,0.035702156031101,-2.032862585398408,-0.4318314930590292,2.558644684909797,-0.0962274603119699,-1.3225728460456183,0
4137,0.0822098593221879,-2.009282147371453,-0.5206315491317804,2.4698113811792366,-0.0503633671367704,-1.275173260248353,0
4149,0.1101132113752539,-1.9025499951407967,-0.6098902579358827,2.424462903613475,-0.0564785784468903,-1.2486294685934032,0
4160,0.0930613392763784,-1.8016095888986523,-0.6929552751424378,2.643750879219224,-0.2113972427051262,-1.3074049562245644,0
4171,0.0364768081986909,-1.8140199890214903,-0.7723473110495677,2.8574477784868466,-0.2735685549082449,-1.364284465394041,0
4183,-0.0313433541130163,-1.9472301467572624,-0.8485287778372408,3.0419477303137734,-0.2898757572375632,-1.396516192434043,0
4194,-0.0960649077543637,-2.1668996512799943,-0.9198887517728022,3.123947710034401,-0.262357331389925,-1.3794523241513046,0
4205,-0.1979888142638221,-2.4585542210701217,-1.0580240520547242,3.0605840916543565,-0.1940708078766864,-1.3225728460456183,0
4217,-0.1859753560582467,-2.4300089452004703,-1.1502658833369164,2.8791902017471824,-0.1003042567196493,-1.2524214565805625,0
4228,-0.1290066737007299,-2.2951449711730687,-1.2666020208095057,2.6704629852664663,-0.0218257254886115,-1.1746861222049787,0
4239,-0.054208292272782,-2.015073893359965,-1.3948687684701462,2.5226143931032947,-0.0167297132804115,-1.1424544262287677,0
4251,-0.0135168298465508,-1.73376584229595,-1.5245133540491485,2.682887232945479,-0.2970101676496029,-1.4723555172841518,0
4262,-0.0224285045778008,-1.5533948085062688,-1.6553045714565282,3.001568955890792,-0.5171577581153177,-1.7738169935418555,0
4273,-0.0879247103867381,-1.508714656889803,-1.7785223796236906,3.380507929958304,-0.7220172451620293,-2.0601104557233425,0
4285,-0.4049415855610296,-2.028314590596428,-1.9457990458651784,3.686144194876241,-0.8402446415595458,-2.2535007558357725,0
4296,-0.5522080423062246,-2.2988694467970445,-1.991461308774924,3.777462350178191,-0.8300526338417465,-2.3141719734182926,0
4308,-0.5859244604201806,-2.324517155188535,-2.0430898166408493,3.609735128646757,-0.7108060216437093,-2.2459168109252454,0
4319,-0.5181042981084735,-2.144559575471761,-2.122481852547979,3.2935382572728336,-0.5497722128697569,-2.088550194776185,0
4330,-0.4557098757738614,-1.9455763304656335,-2.225507662189846,3.018341676008348,-0.4203335762553195,-1.8743041005214391,0
4342,-0.4479570044900308,-1.752381442480207,-2.331289147668436,2.912114431633931,-0.329624622404042,-1.388932247523516,0
4353,-0.4894262938878175,-1.6427517227713897,-2.398750573387514,2.9630538125129,-0.329624622404042,-1.2201897295405602,0
4364,-0.56267219617662,-1.6080012468403184,-2.452443018544519,2.940690178904201,-0.3072021753674021,-1.1727901437432948,0
4376,-0.6936646077944948,-1.63365234419962,-2.52426352493574,2.805887197437451,-0.2185316531171659,-1.250525478118878,0
4387,-0.7021921312459153,-1.709771950196088,-2.5582226242988,2.5723113532855364,-0.07482421237725,-1.3282607814306708,0
4398,-0.6684725383279936,-1.729627912599067,-2.610309784896077,2.2505235684204705,0.0719408256684254,-1.2656933368761416,0
4410,-0.6405691862749276,-1.6758483824108317,-2.667675211352507,1.8871145782577596,0.1871106247601825,-1.019215608772765,0
4421,-0.6498713618939381,-1.5471896084448498,-2.722745494427873,1.5522814982123,0.2645699234920988,-0.6438108482542182,0
4432,-0.6665359079090187,-1.3635109420719107,-2.772308185278411,1.0857512543493706,0.3634325202545376,0.0406390538584439,0
4444,-0.6564590801224184,-1.2125120922976955,-2.810169592306572,0.9416300871233618,0.3817781040890947,0.2435092773430857,0
4455,-0.6378579036883628,-1.1732102325968348,-2.8390797521761537,0.8242210259445959,0.3705669306665773,0.3534763076948804,0
4466,-0.6572337322900083,-1.1450817997679008,-2.884283362354548,0.6906605465980646,0.3369332768102183,0.3610602215416169,0
4478,-0.6758380835280293,-1.148802886424066,-2.9150318925981518,0.511751467550535,0.2951459800426982,0.3079727003592989,0
4489,-0.6738982783050889,-1.1980344218103218,-2.9522034408049773,0.2912212442729785,0.2492819035660995,0.275740973319297,0
4500,-0.671574321802319,-1.2356790762517431,-2.977444378823751,0.0489486079130226,0.1942450351722222,0.3193486021931943,0
4511,-0.6944392599620848,-1.2538812223630933,-2.977215052458076,-0.1877331353116629,0.1330929220710234,0.4387955248534097,0
4523,-0.7382325058626413,-1.2658781684130245,-2.954269257820365,-0.5908996488372472,0.0953824551083843,0.7914484506403753,0
4534,-0.7638119014129374,-1.280359227868209,-2.920537605098672,-0.7729147898045301,0.1392081333811433,0.9582949280340656,0
4545,-0.7568336822966968,-1.3175904282367237,-2.893232729788818,-0.9530661674135495,0.1993410306818214,1.091013762053651,0
4557,-0.6832004539240993,-1.4429381806516368,-2.8925447506917914,-1.1369449088921133,0.2452051071584201,1.1915008690332347,0
4568,-0.6370832515207729,-1.5277471001147782,-2.8897909545793774,-1.3276570456261652,0.24622430626034,1.2654442775492405,0
4579,-0.6297177063207372,-1.6282740522840151,-2.8595029567914336,-1.5214751730344154,0.1983218315799016,1.3090519064231378,0
4591,-0.6576210583738032,-1.729627912599067,-2.8044326737160667,-1.732687078239539,0.1392081333811433,1.303363939974295,0
4602,-0.6789366921983891,-1.816917556499652,-2.7445446572372063,-1.987383972456444,0.107612877728624,1.2464844308048182,0
4614,-0.6587862114291537,-1.881040216446189,-2.6883258626091537,-2.532808052696756,0.1514385560013831,1.2673402560109246,0
4625,-0.6053034638257916,-1.913306578972006,-2.635321396549175,-2.6961869442807567,0.201379445584262,1.4967541158315627,0
4636,-0.5487221075520698,-1.9517815305270525,-2.577497317361394,-2.7371869392300385,0.2482627044641797,1.8531989985418968,0
4648,-0.5103546016286084,-2.276942825061719,-2.442576345647547,-2.721656639809209,0.2798579601166989,2.2361877350347616,0
4659,-0.4785748139336271,-2.4531759291545168,-2.3785566951379096,-2.7868838892343435,0.278838761014779,2.5035213815356165,0
4671,-0.4270318715532055,-2.5954854654620587,-2.310867822777465,-3.000580798679904,0.2329746845381804,2.6059044669768845,0
4682,-0.3987411934163445,-2.643473249661782,-2.2300979489519728,-3.3130500924476176,0.1504193402008624,2.6059044669768845,0
4693,-0.3987411934163445,-2.557013902874823,-2.124316463473383,-3.643534842545644,0.0688832116640651,2.560400890705093,0
4705,-0.4146279124598697,-2.409739528724584,-1.9942151048873389,-4.033034728407234,0.057672004844346,2.48266555632951,0
4716,-0.4312924584749502,-2.230608857153624,-1.852867355761651,-4.002595339913938,0.168764974131222,2.5073133384589847,0
4727,-0.3855625821554187,-2.0473436448535924,-1.7202415274288672,-3.84977720745497,0.3328564637039382,2.583152694372884,0
4738,-0.0852134278001733,-1.9108258545345629,-1.4939941501712206,-3.64105000115219,0.462295050222573,2.6570960407613087,0
4750,0.0461663099014964,-1.8851747571752613,-1.4045061150014428,-3.4397773292077067,0.4694294606346127,2.645720138927413,0
4761,0.1174755817713239,-1.858700140637956,-1.3267193636540415,-3.259004965164925,0.3399908741159779,2.511105326446144,0
4773,0.1415056729864402,-1.8094686052517004,-1.2404437773280297,-3.09748985729506,0.1147472881406638,2.2589395387025526,0
4784,0.1077860800685184,-1.7196982369136724,-1.125712924415169,-2.955853541640441,-0.141072320988048,1.9119744551092668,0
4795,0.0384166134216313,-1.6415113605526677,-0.9850550341108166,-2.6166716634624736,-0.4570248274174379,1.2673402560109246,0
4807,-0.0170027646007055,-1.6034498630705285,-0.847150939918879,-2.384338402854268,-0.4437752056952783,1.115661544183126,0
4818,-0.0375437462577014,-1.6208251010360637,-0.7305854760806146,-2.155732404336242,-0.3551046667464413,1.054990078090281,0
4829,-0.0088657420370455,-1.9563295253290325,-0.5614760786380316,-2.014096088681623,-0.2440117141581661,1.026550307973647,0
4841,0.0461663099014964,-2.1557296133758777,-0.5201728964004294,-2.0463991082200086,-0.1400531218861281,1.026550307973647,0
4852,0.1023603400914233,-2.186345548577876,-0.4944733056503044,-2.261338438362295,-0.0687090010671301,1.0948057189770193,0
4863,0.1089512331238689,-1.9985289525080547,-0.4616608381156217,-2.5557928966538186,-0.0442481558266505,1.2256286366625022,0
4874,0.0853084679925478,-1.6642648904338078,-0.4049852704805267,-2.7837778273145903,-0.0452673716271712,1.3393876239376648,0
4886,0.0663199654746973,-1.3436515907011213,-0.3281158245958272,-2.729111184345442,-0.0126529168727321,1.316635820269874,0
4897,0.061281551581397,-1.1599729243281824,-0.2496410941513993,-2.516656542927563,0.036268756909626,1.2161486511627095,0
4908,0.0771714454288877,-1.1397035078522963,-0.1833281799850073,-2.32035357412586,0.0882480446963445,1.1213494795681784,0
4920,0.1949852457858367,-1.1566652917449247,-0.0858080828436613,-2.2091566367866,0.1157665039411844,1.0682619583858604,0
4931,0.2465313629702239,-1.0892316102473183,-0.0468000439871228,-2.166293010792228,0.0943632560064644,1.075845872232597,0
4942,0.2709456054651695,-0.9845667283811986,-0.0139875764524401,-2.143929377183529,0.0209807369836267,1.111869556195967,0
4954,0.2717202576327595,-0.8410168298549353,0.0206613817319553,-2.11783848148465,-0.0952082612100501,1.111869556195967,0
4965,0.2484679933891988,-0.6784344881036966,0.0660943182760251,-2.078080917410031,-0.2378965028480462,1.0360302313458585,0
4976,0.2058367257400271,-0.5439839681492029,0.1268996402175875,-1.872459762849068,-0.484543269963677,0.7630087115875323,0
4988,0.1422803251540301,-0.4835857838266413,0.2053743706620154,-1.7084598135857498,-0.5018697381893185,0.6871693246098423,0
4999,0.0500427455434117,-0.5212338272358735,0.2907345312496344,-1.5761418261815,-0.3917959179085598,0.6814813892247898,0
5010,-0.0790130356554881,-0.6982938394744864,0.4052341780725106,-1.5419751654200882,-0.1777635721501664,0.7042331928925806,0
5022,-0.0313433541130163,-0.7648972238584668,0.4102812378416802,-1.622111503917689,0.0668448134602254,0.7421528863814256,0
5033,0.0938359914439683,-0.6490623040882303,0.3905478920477355,-1.8035052411558168,0.2533587166723797,0.7933444291020595,0
5044,0.2403277960215732,-0.3487218097992402,0.3710438726194661,-2.0358385017640224,0.312472414871138,0.8445359718226932,0
5056,0.3259776574037115,0.0190489770195447,0.3710438726194661,-2.1998384510273405,0.2227826601217803,0.876767636735114,0
5067,0.3271396356550963,0.3404891848980459,0.4201479107386525,-1.9538385220433951,-0.1726675766405672,0.808512287859323,0
5078,0.2639705611528944,0.4385354126298399,0.480496459673173,-1.6438539271780246,-0.3000677649553624,0.7781765703447958,0
5090,0.1674692198165657,0.2974662385410199,0.5130796008421801,-1.4102782356951558,-0.3072021753674021,0.8028243524742706,0
5101,0.0419025481757861,0.1319863293116202,0.527534680776971,-1.343808555395358,-0.1971284051824459,0.850223876143955,0
5112,0.0953852957791482,0.3115304549554868,0.5128502744765048,-1.4307782280808283,-0.0371137621132117,0.8672877133629027,0
5124,0.197312377092572,0.5866366949258934,0.4954101923393148,-1.5736569746101103,0.0688832116640651,0.8312640915271138,0
5135,0.2984616314344406,0.8791147838940248,0.4770546844637318,-1.6618689153232613,0.0525759926361459,0.7630087115875323,0
5146,0.3519443790378025,1.1285733154729407,0.4586972968638401,-1.627702417408832,-0.0962274603119699,0.6757934227759469,0
5157,0.3341146799673715,1.2547479760336686,0.4722350713359289,-1.2003085170942216,-0.6262122791025517,0.4691312734317275,0
5169,0.2310287952065282,1.215449505300618,0.5380893327709698,-0.9033692174092444,-0.8269950198373862,0.4046678504155142,0
5180,0.062830855916577,1.0851335260751966,0.6349214508152897,-0.6704148176982301,-0.8514558650778657,0.3932919485816188,0
5191,-0.1944997047057018,0.8753936972378598,0.7666299736853713,-0.5536269363340183,-0.6924603877133496,0.4046678504155142,0
5202,-0.1894644656163671,0.8667043837711866,0.7755793411196418,-0.5436875402263954,-0.4254295717649187,0.4008758624283554,0
5214,-0.1053639085694087,0.9407567194031188,0.7556166689600214,-0.6020814656415967,-0.1553411418121274,0.3838120252094076,0
5225,0.0085734561456249,1.082239347564846,0.7184451207531959,-0.6697936073498669,0.0301535622981069,0.3743321018371964,0
5236,0.1015856879238333,1.2650911057919705,0.6847134680315022,-0.6896723893871762,0.0892672437982644,0.3610602215416169,0
5247,0.1446042816568,1.423122063773419,0.6730121842091261,-0.4834299837661041,-0.07992022458545,0.2984927769870877,0
5258,0.1294890399768993,1.5054468698313062,0.6803543873593593,-0.2802937011324036,-0.1818403852564467,0.2454052558047698,0
5270,0.0763967932612978,1.4818664318043515,0.6934335091000973,-0.0802634702405198,-0.228723677533566,0.1904217250969771,0
5281,0.0027603900847347,1.36231042537795,0.7143134867224197,0.0657213280305788,-0.2012052182887261,0.1430221703635021,0
5292,-0.1379183484319799,1.0416971256452632,0.7608949348191755,0.1259788844908702,-0.0890930498999302,0.1221663451573955,0
5303,-0.1231936076398397,1.0036390171309344,0.7537801783103087,0.0899485825064316,0.0882480446963445,0.1335422469912909,0
5315,-0.0410328558158218,1.0896849098449868,0.7253286711720782,-0.0082028866275155,0.2676275374964592,0.1600860075824499,0
5326,0.0698090750328176,1.2448216893160846,0.6842548153001514,-0.0988998315811024,0.3787205401805368,0.1562940506590816,0
5337,0.1601068494204957,1.3916826093934165,0.6445587973465865,-0.1212634550118652,0.3797397392824567,0.103206498412973,0
5348,0.1976997031763671,1.488485085938678,0.6211543499775253,0.142130394260063,0.1014976664185042,-0.0219283906960852,0
5360,0.1837464397478513,1.524889378161378,0.619088532962137,0.3924788058604881,-0.0625937897570102,-0.0295123356066123,0
5371,0.1384038895121148,1.49882821569698,0.6360680826436671,0.6726453956058454,-0.1706291617381267,0.0065113794205484,0
5382,0.0775587715126827,1.4169168637119998,0.6636041640435049,0.9453573593914784,-0.1981476209829666,0.0520149556923392,0
5393,-0.0309560280292213,1.1786283700372004,0.7225748750596634,1.1795542612227106,-0.141072320988048,0.0728707808984458,0
5405,-0.053433640105192,1.043764396009799,0.7411615890252305,1.3603270120270758,-0.0197873272847719,0.0595989006028663,0
5416,-0.0445187905699765,0.9039389731075116,0.7436841790476613,1.482084555822322,0.1341121211729433,0.015991271728969,0
5427,-0.0022780238085653,0.7963765237632302,0.7225748750596634,1.5442057433277032,0.2818963583205386,-0.0541601177360872,0
5438,0.0550811594367119,0.769488453153018,0.6854033268528376,1.5597360427485327,0.3827973198896154,-0.1318953899840893,0
5450,0.1023603400914233,0.7893444155559968,0.6411170221371454,1.6833570649198226,0.3756629261761765,-0.370789328495892,0
5461,0.1310415191160448,0.8261621618516038,0.5966013910557777,1.9424024417532075,0.2941267809407784,-0.5565956215702141,0
5472,0.1345274538701995,0.8646371134066505,0.5502511490490058,2.335008389534551,0.2074946568943818,-0.706378323872538,0
5484,0.0880229253830781,0.6619293927765473,0.4417177471823099,2.789114467141959,0.1483809419970227,-0.8220333517369663,0
5495,0.0550811594367119,0.3640696229250006,0.375404833015918,3.234523426847361,0.1249393125570638,-0.937688348537604,0
5506,0.0329908734445361,0.0198758851653592,0.2957815910188039,3.6035230149851865,0.129016125663344,-1.0571351780064475,0
5517,0.0163263274294555,-0.342103155664914,0.2117992683495468,3.855113847282338,0.1371697184787028,-1.180374088653822,0
5529,-0.0111896985398153,-0.7127715099618604,0.1301120890613531,3.9942653215435033,0.1208624994507836,-1.297925032852353,0
5540,-0.0363817680063164,-1.0255224043736884,0.0555396662820262,3.997371383463257,0.0270959482937466,-1.4799394311308882,0
5551,-0.0635104678917924,-1.2882182442212569,-0.0183466571245831,3.90915929008106,-0.0106145186688925,-1.4875233760414153,0
5563,-0.1069163877085541,-1.5252629867095242,-0.1014116743311385,3.791750228902294,-0.0055185064606924,-1.419267965038043,0
5574,-0.1689234839593712,-1.823949664706885,-0.2728162151547852,3.652598754641129,0.0403455700159062,-1.3282607814306708,0
5585,-0.1530335901118805,-1.859940502856678,-0.3730901084085459,3.517174552648079,0.1004784673165843,-1.2600053704272989,0
5597,-0.1038146042342288,-1.8156771942809296,-0.4960804699343416,3.427720028391219,0.1402273324830631,-1.2201897295405602,0
5608,-0.0367690940901115,-1.763964934457231,-0.6383436447984222,3.418401852809896,0.1147472881406638,-1.2050218707832965,0
5619,-0.0015001968370099,-1.7759618805071615,-0.7757890862590089,3.4948109190393803,-0.0055185064606924,-1.23346160983614,0
5630,-0.0584720539984923,-1.9302683628646344,-0.8905180594475606,3.7109926800563295,-0.3418550450242817,-1.3585964989451982,0
5642,-0.1762858543554412,-2.122222888631339,-0.9843670550137902,3.707886618136576,-0.4121799500427591,-1.3775563456896207,0
5653,-0.2972014381867156,-2.250051365483696,-1.0605466420771543,3.635826034523572,-0.3989303283205995,-1.3434286401879345,0
5665,-0.4146279124598697,-2.1677265594258084,-1.2168081238689838,3.542644237998596,-0.3337014188117213,-1.303612999301196,0
5676,-0.4138532602922796,-1.9952179309569864,-1.3010197729039163,3.4786594092701875,-0.2542037218759654,-1.3301567598923552,0
5687,-0.4343942419492755,-1.9803268063967048,-1.3950980948358216,3.4786594092701875,-0.1604371540203275,-1.424955931486886,0
5699,-0.4324576115303006,-2.059340590903524,-1.494684008992556,3.5022654635756134,-0.0309985508030918,-1.534922961838681,0
5710,-0.3886643656297441,-2.1044341965928965,-1.5938093906936306,3.4774169885734607,0.1035360813209447,-1.6088663082271055,0
5721,-0.3495222075386928,-2.141251942888504,-1.6975250591568325,3.282356440468484,0.2044370428900215,-1.5709466458020511,0
5732,-0.3254921163235765,-2.120979137444807,-1.8012388478957255,3.1605992121892665,0.146342543793183,-1.5254430384664697,0
5744,-0.3223935076532167,-2.024176660899545,-1.921704739674782,3.0661749949675627,0.0383071718120665,-1.5235470600047851,0
5755,-0.4847752060783122,-1.796644751055955,-2.137395585214121,3.036356827000567,-0.0758434114791698,-1.5974904063932105,0
5766,-0.6142183133610072,-1.7527948965531142,-2.194531685304876,3.061826512351083,-0.1594179549184076,-1.7169373601172162,0
5778,-0.7432709197559416,-1.7544487128447432,-2.237210825736531,3.091023469969715,-0.1736867757424871,-1.8060486895180663,0
5789,-0.8316320637246446,-1.770997042664464,-2.289527312699483,3.0717658982807694,-0.0962274603119699,-1.8250085362624893,0
5801,-0.8327940419760297,-1.7527948965531142,-2.3556109005001997,2.984175015246936,0.0454415822241062,-1.7832968858502758,0
5812,-0.7769873378698977,-1.7573462803229047,-2.430185203003835,2.672947836837856,0.2982035940470585,-1.5690506673403668,0
5823,-0.7165295459542605,-1.7565159832092794,-2.5040715264104443,2.461114415946277,0.3318372646020183,-1.4097880727296224,0
5835,-0.679711344365979,-1.684534306909694,-2.572908910323576,2.221947810972265,0.2859731714268188,-1.2467334901317193,0
5846,-0.7583861614358423,-1.7763753345800688,-2.702092963446918,1.962281223790517,0.1911874211678619,-1.0685110798403428,0
5857,-0.8653484818386008,-1.813193080875676,-2.725728616905964,1.6603722209627605,0.0892672437982644,-0.8618489926237048,0
5869,-0.9591353657843992,-1.7949909347643258,-2.726645922368666,1.3118724827194974,0.0240383509879871,-0.6172670876630592,0
5880,-1.0308319637380217,-1.7590000966145334,-2.721596982875188,0.947842210962868,0.0250575500899069,-0.304429895954204,0
5891,-1.0738505574709882,-1.6390306361152245,-2.725040637808937,0.6005847712810954,0.0953824551083843,0.053910965217814,0
5903,-1.0447852271665374,-1.4131525425632632,-2.746837920893961,0.1197667606513639,0.307376402662938,0.5506585336668887,0
5914,-0.9618498231749294,-1.1934830380405317,-2.782174858175383,0.0744182932635386,0.3532404958381375,0.6321858249658402,0
5925,-0.8765872878765861,-1.053240772097526,-2.8152166520757413,0.1427516046084264,0.3318372646020183,0.6170179662085765,0
5936,-0.8056653420905535,-1.126462810615833,-2.828295773816479,0.2576758040378661,0.2604931270844194,0.5316987179862568,0
5948,-0.8180693011838893,-1.282013044159838,-2.810398918672247,0.3365697320166766,0.1708033890336626,0.4065638288771984,0
5959,-0.8409342393436552,-1.411085272198727,-2.7828628372724094,0.3073727540421713,0.0923248578026248,0.2890128536148765,0
5970,-0.8924771817240769,-1.4987883701722189,-2.753721471312844,0.1551758522874391,0.0474799804279459,0.2454052558047698,0
5981,-0.9649484318452892,-1.5827669925217351,-2.732841493690521,-0.0771574083207666,0.0525759926361459,0.3155566142060355,0
5993,-1.0083543516620508,-1.6572327822265749,-2.720221024681134,-0.6536420568689285,0.2258402741261406,0.6966492479820535,0
6004,-0.9905278273955854,-1.708941653082463,-2.716320596740342,-0.9754298010222489,0.3359140610096977,0.9545029400469068,0
6015,-0.905265292097242,-1.761480821051977,-2.725269964174613,-1.2953539446642883,0.4031813520238147,1.273028222459767,0
6027,-0.7638119014129374,-1.9414384007687504,-2.743625472050196,-1.6034751527550424,0.4164309737459744,1.6332649067745164,0
6038,-0.7576115092682523,-2.007214877006917,-2.739725044109403,-1.9091112650039332,0.3817781040890947,1.9840218230360076,0
6050,-0.7746633813671279,-2.0543757530608264,-2.730775676675133,-2.22655056725252,0.3002419922508982,2.266523452549289,0
6061,-0.8234950411609846,-2.1019500831876425,-2.7039294540966305,-2.5514444140373387,0.185072209857742,2.4371619489939285,0
6072,-0.8889880721659565,-2.180136959548647,-2.648859171021264,-2.871989930874724,0.080094435182385,2.497833446150564,0
6084,-0.9413088415179336,-2.2963853333917905,-2.5701551142111607,-3.4782924725855984,0.0749984229741849,2.573672771000673,0
6095,-0.9273555780894176,-2.397739193706842,-2.477683956563293,-3.737959059767346,0.1779377994457023,2.736727105088251,0
6106,-0.8180693011838893,-2.433319966751539,-2.3732803090030647,-3.913762036183378,0.2880115696306585,3.032500490641949,0
6118,-0.5661613057347403,-2.288112862965836,-2.1472622581110934,-3.965943837759073,0.3471252845280176,3.3699855266078607,0
6129,-0.4902009460554075,-2.195444927149646,-2.0072942266280767,-3.8920196231009783,0.3328564637039382,3.5861276303880816,0
6140,-0.4227681098274952,-2.168140013498716,-1.852638029395976,-3.741686332035464,0.2645699234920988,3.5861276303880816,0
6152,-0.3413820101710672,-2.176829326965389,-1.7021134661946509,-3.598186375157818,0.1748801854413419,3.4041132321095464,0
6163,-0.2739491739431549,-2.1507647755331805,-1.5607675967932724,-3.519292457356944,0.0780560369785453,3.1329875976215327,0
6174,-0.2506969096995942,-2.055616115279548,-1.430205705751568,-3.410580371589074,-0.0758434114791698,2.6343442370935177,0
6186,-0.2421693862481737,-1.93399283848861,-1.312034957353575,-3.278262536853871,-0.0982658585158097,2.465601719110562,0
6197,-0.2390707775778138,-1.921582438365772,-1.203729002128246,-3.107429253402683,-0.0707473992709698,2.365114612130979,0
6208,-0.2871246104001151,-2.338581371603002,-1.0174088489141484,-2.972626261757997,0.0056927170576274,2.355634688758768,0
6220,-0.2716220426364195,-2.662088849846039,-0.9646337092198456,-2.9769747443744774,0.1167857030431043,2.4599137526617194,0
6231,-0.1553575466146504,-2.7919879860307435,-0.942146567313486,-3.1844595299805305,0.2105522542001414,2.660887997684677,0
6242,-0.0162281124331156,-2.600863757377663,-0.9205786105941376,-3.559671231779926,0.185072209857742,2.865653951120678,0
6253,0.0825971854059829,-2.103190445406364,-0.8661963066157974,-3.961595355142593,-0.0034800915582519,2.941493275970786,0
6265,0.1341401277864045,-1.4416978184329152,-0.7494015164118574,-4.109443794636718,-0.5864634807304762,2.4200981117749807,0
6276,0.1128244939618187,-0.8352250838664232,-0.5782263019538862,-3.664656045279679,-0.7801117442588676,1.9953977248699024,0
6287,0.0457789838177014,-0.4848261460453629,-0.3953479239492298,-2.996853526411787,-0.8320910320455863,1.599137232336621,0
6299,-0.0046019803113352,-0.6221742334780179,-0.1032462852565423,-2.310414178018237,-0.7638045085323477,1.2711322129342926,0
6310,-0.0247556358845361,-0.975880803882336,-0.0002204756146756,-1.7736870630108843,-0.6160203381791557,1.0417181977947014,0
6322,-0.0379310723414964,-1.3271032608814004,0.0688481143884396,-1.4885509431476664,-0.4111607509408392,0.9393350812896432,0
6333,-0.0096403942046355,-1.5244360785637097,0.1021192346544734,-1.4810963986114334,-0.1757251739463267,0.963982863419118,0
6344,0.0605068994138071,-1.468589278010938,0.1009707231017871,-1.6898234522451674,0.0403455700159062,1.070157936847545,0
6355,0.1511919998852801,-1.1926561298947171,0.0872036222640226,-2.256368735219515,0.1830338116539023,1.1801249671993392,0
6367,0.2391658177701882,-0.8712159220162161,0.0844498261516079,-2.375020217095008,0.0821328333862247,1.0985976759003877,0
6378,0.2767586715260597,-0.6387225632977391,0.1009707231017871,-2.361974769245568,-0.0554593793449705,0.963982863419118,0
6389,0.2081638570467625,-0.2866698091850497,0.1760036783367738,-2.2936414579006805,-0.1645139504280068,0.7990323955509024,0
6401,0.1709583293746861,-0.1650431434263013,0.2517264923930959,-2.201702092250367,-0.2134356409089659,0.6378737603508926,0
6412,0.136854585176935,-0.1228471052150896,0.3134509995216692,-2.072490003918888,-0.1655331662285275,0.5468665767435203,0
6423,0.1403405199310897,-0.0272849908885497,0.3276767530907847,-1.9457627671587987,-0.0106145186688925,0.5373866533713091,0
6435,0.2163008796104225,0.1861827025405734,0.3212518554032534,-1.8594143149996285,0.168764974131222,0.563930413962468,0
6446,0.3356671591065169,0.440602682994376,0.3155149368127487,-1.6332933207220384,0.1820146125519825,0.5127389023056249,0
6457,0.4383657177835652,0.6420700414057577,0.320563876306227,-1.413384297614909,-0.041190558520891,0.3553722861565646,0
6469,0.4631704611662714,0.7095037229033635,0.3414438539285491,-1.1462630844734365,-0.3479702563344016,0.1278542805424479,0
6480,0.2736568880517344,0.4252947153933766,0.4226723804853916,-0.9052328484543344,-0.6353851044170319,-0.1110395958417734,0
6491,0.14382962948921,0.2213466325445516,0.486231498539369,-0.7530360077672207,-0.8178222112215069,-0.2684062119908337,0
6503,0.0337655256121261,0.109649642471198,0.5566760467365371,-0.6921572307806295,-0.8514558650778657,-0.2684062119908337,0
6514,-0.0390930505928813,0.127851788582548,0.6105996979835263,-0.6871875378157862,-0.7434204763981483,-0.120519488150194,0
6525,-0.0669964026459473,0.2445136164985989,0.6383632260247306,-0.6989905649684993,-0.5456954164620775,0.0709748024367617,0
6537,-0.0410328558158218,0.3851693365145117,0.6496077368400648,-0.6840814758960332,-0.1380147069836876,0.1923177346224518,0
6548,0.0205900891551658,0.4799045426952371,0.6592450833713619,-0.6598541705304983,-0.0167297132804115,0.108894464861816,0
6559,0.0736823358707674,0.5328571647376581,0.6766832857842429,-0.6207178269821794,0.0372879727101467,0.0273671735628644,0
6570,0.0705837272004076,0.5928418949873124,0.7186744471188713,-0.5536269363340183,0.0474799804279459,0.0046154009588643,0
6582,0.0430677012311366,0.5837391274477322,0.7312949161282585,-0.4660360533001845,0.0423839682197459,0.0178872812544438,0
6593,0.0163263274294555,0.5551938515780803,0.738866445644167,-0.3753391490583432,0.0352495578077061,0.0368470969350756,0
6604,-0.0154534602655256,0.5225140349793561,0.7457499960630494,-0.2914755179367531,0.0372879727101467,0.0520149556923392,3
6615,-0.0433568123185916,0.4844525374972166,0.7537801783103087,-0.2194149241458124,0.057672004844346,0.0766627378218141,3
6627,-0.0526589879376021,0.444740612691259,0.7583704650724361,-0.1610210190864839,0.1065936786267042,0.1183743882340273,3
6638,-0.0406455297320268,0.4410161370672832,0.7524042201162559,-0.1125664999568418,0.2778195619128592,0.2074855933797154,3
6649,-0.0127390028749953,0.4848659915701238,0.738866445644167,-0.104490734894309,0.3583365080463375,0.2321333755091903,3
6660,0.0310510682215957,0.5374051595396375,0.7161499773721324,-0.0796422598921564,0.4031813520238147,0.2378213108942426,3
6672,0.1449916077405949,0.5733993866572409,0.6615383470281168,-0.0355362132010579,0.396046941611775,0.2188614952136108,3
6683,0.1740569380450458,0.5634697109718462,0.639970390308768,0.0185092194197271,0.3410100732178978,0.1923177346224518,3
6694,0.1682438719841556,0.505965705159635,0.6340041453525876,0.0769031448349284,0.2564163139781392,0.1790458543268724,3
6705,0.1337528017026096,0.3897173313164912,0.6420343275998472,0.1259788844908702,0.1738609863394221,0.1828378112502406,3
6717,0.0922866871087883,0.2784337953160448,0.6541961438778832,0.13467584972383,0.1249393125570638,0.1752538663397135,3
6728,0.0674819437260822,0.2308594651892284,0.6610796942967655,-0.0113089485472686,0.1657073768254625,0.1562940506590816,3
6739,0.0744569880383573,0.2680940545255535,0.6539668175122078,-0.102627103849219,0.2115714533020612,0.1942137130841359,3
6750,0.1023603400914233,0.3686210066947907,0.6362974090093425,-0.1461119300140178,0.2380706800477796,0.2416132988814015,3
6761,0.1260031052227445,0.4844525374972166,0.6165640632153978,-0.1212634550118652,0.2350130827420201,0.2852208966915082,3
6773,0.1415056729864402,0.6106305870257552,0.5988965344368412,-0.0373998544240843,0.2054562419919413,0.3269325160399308,3
6784,0.1236759739160091,0.5556073056509875,0.5982085553398148,0.0769031448349284,0.1657073768254625,0.3591642430799328,3
6795,0.089959555802053,0.4013008232935149,0.6009623514522295,0.1818879685126181,0.1402273324830631,0.3724361233755123,3
6806,0.0632181820003719,0.2391353245829943,0.604174800295995,0.2253727844994805,0.1473617428951029,0.3648522095287758,3
6818,0.0577924420232768,0.1514322266095024,0.6037142678403353,0.1812667479863184,0.1891490229640222,0.3572682646182487,3
6829,0.0748443141221523,0.1654964430239693,0.5977499026084637,-0.0783998290174933,0.3155300288754984,0.3553722861565646,3
6840,0.1077860800685184,0.2585778329130659,0.5842121281363749,-0.2045058656071555,0.3562981098424978,0.3402043963355103,3
6851,0.1511919998852801,0.3876500609519551,0.566313393267834,-0.2778088495610137,0.3613941053520971,0.3212445806548785,3
6863,0.2267650334808179,0.6176626952329887,0.5385498652266297,-0.2815361218291303,0.3277604514957381,0.3117646572826672,3
6874,0.2426549273283086,0.6809584470337116,0.5309764559864122,-0.2225209860655655,0.2666083383945393,0.3079727003592989,3
6885,0.2438169055796935,0.67971808481499,0.5277640071426466,-0.1187786034404754,0.1952642342741421,0.2965967985254036,3
6897,0.2380038395188034,0.6184896033788032,0.527993333508322,0.0023577096505343,0.1320737229691036,0.2795329613064559,3
6908,0.227152359564613,0.5357513432480085,0.5316644350834385,0.1042364612305344,0.0872288455944247,0.2700530379342446,3
6919,0.2101004874657373,0.4670772995316811,0.5385498652266297,0.1725697827533586,0.0515567935342261,0.2871168751531924,3
6930,0.2004109857629319,0.4261216235391911,0.5440555777271502,0.1402667530370366,0.0464607813260261,0.2795329613064559,3
6941,0.2050620735724371,0.4195029694048647,0.5431382722644481,0.0837364790227981,0.0372879727101467,0.254885179176981,3
6953,0.2116497918009173,0.4439137045454445,0.5385498652266297,0.0241001329108701,0.0158847247754266,0.2150695072264519,3
6964,0.2174628578618075,0.5518862189948225,0.5344182311958533,-0.0156574311637485,-0.018768128182852,0.1714619094163452,3
6975,0.2205646413361328,0.6155954248684525,0.5348768839272043,-0.0218695550032549,-0.0605553915531705,0.1164783787085525,3
6986,0.2244410769780481,0.6420700414057577,0.5374013536739435,0.0104334645351307,-0.1064194680297692,0.048222998768971,3
6998,0.2310287952065282,0.6114574951715697,0.54107245524906,0.0787667860579549,-0.1543219427102076,-0.0143444457855581,3
7009,0.2205646413361328,0.5353378891751014,0.5472680265709157,0.1663576690917886,-0.2032436164925658,-0.0408882374405077,3
7020,0.1837464397478513,0.4331571207142353,0.5589711901176009,0.293084885496005,-0.2531845227740456,0.0103033363439166,3
7032,0.1376292373445249,0.316081838725277,0.5773266979931839,0.2881151823532253,-0.2205700513210056,0.0501189772306551,3
7043,0.1019730140076283,0.1973527404446898,0.5963720646901021,0.221645512231364,-0.1451491173957274,0.0918305965790777,3
7054,0.0845338158249577,0.1820447728436905,0.6064680639527499,0.1054788819272611,-0.0493441680348506,0.1259583020807638,3
7065,0.1318161712836347,0.260645103277602,0.5975205762427883,-0.0231119756999816,0.036268756909626,0.1373342039146591,3
7077,0.1852957440830312,0.3471078390323723,0.5832929429493641,-0.129960420244825,0.0882480446963445,0.1145824002468684,3
7088,0.2147515752752426,0.4434968615047265,0.5748041079707534,-0.1958088901962593,0.102516865520424,0.0842466827323412,3
7099,0.2252157291456381,0.5287192350407751,0.5777872304488436,-0.2076119173489723,0.0892672437982644,0.0614948790645505,3
7110,0.2209519674199277,0.5663638894821967,0.5851294335990768,-0.0995210419294658,0.041364769117826,0.0614948790645505,3
7122,0.2019602900981118,0.5390623647990771,0.5931596158463365,-0.0249756067450716,0.0301535622981069,0.0899346181173936,3
7133,0.1744442641288408,0.4654234832400522,0.6048627793930215,0.0321758877954665,0.036268756909626,0.1316462685296068,3
7144,0.1469282381595698,0.3785472934123748,0.6193178593278126,0.0557819319229559,0.0597104030481857,0.1714619094163452,3
7155,0.1267777573903345,0.2949821251357658,0.6365286150993268,0.043978904770243,0.0902864429001843,0.2055896149180313,3
7166,0.1267777573903345,0.3148414765065553,0.6411170221371454,0.0085698334900406,0.1137280890387439,0.2188614952136108,3
7178,0.1279397356417194,0.3553803094583274,0.6390512051217573,-0.0293240893615515,0.1229009143532242,0.2112775503030837,3
7189,0.1287143878093093,0.4004739151477005,0.6305623701431465,-0.050445302273524,0.1218817152513043,0.1923177346224518,3
7200,0.1333654756188146,0.4422564992860048,0.6213836763432007,-0.0454755991307443,0.1106704917329844,0.1771498448013976,3
7211,0.1380165634283198,0.4844525374972166,0.6140414731929675,0.0284486155273499,0.0821328333862247,0.1506060842102386,3
7222,0.1407278460148847,0.5134112674397757,0.6092218600651647,0.0800092067546816,0.0719408256684254,0.1126864217851843,3
7234,0.1426676512378251,0.510103634856518,0.6062387375870745,0.1278425155359603,0.0678640125621452,0.0766627378218141,3
7245,0.1399531938472947,0.47949108862233,0.6034849414746598,0.1651152382171256,0.0719408256684254,0.0652868670517094,3
7256,0.1314288451998397,0.3893038772435839,0.5949961064960492,0.1868576614774613,0.0841712482886652,0.0804546947451823,3
7267,0.1353021060377895,0.3326301685449981,0.58948851427122,0.188100082174188,0.1045552804228645,0.108894464861816,3
7278,0.1407278460148847,0.2817448168671133,0.5807684732026249,0.1651152382171256,0.1279969098628234,0.1430221703635021,3
7290,0.15196665205287,0.2594047410588803,0.5692965157459242,0.1166606987316107,0.1483809419970227,0.1809418327885565,3
7301,0.1701836772070961,0.2825717250129277,0.5571346994678882,0.0532970905295025,0.1565345515109823,0.2188614952136108,3
7312,0.1922739631992719,0.3384219145335099,0.546809373839565,-0.0411271165142645,0.1218817152513043,0.2378213108942426,3
7324,0.2132022709400627,0.3938552610133741,0.5399258234206826,-0.0479604507021342,0.0831520491867453,0.2207574736752949,3
7335,0.2205646413361328,0.430259553236074,0.5369427009425924,-0.0305665202362146,0.041364769117826,0.2074855933797154,3
7346,0.198861681427752,0.4401892289214688,0.5447435568241766,-0.0019907729659455,0.0067119161595473,0.1961096915458201,3
7357,0.1841337658316463,0.4145415205299781,0.5539222506241225,0.0216152813394802,-0.0126529168727321,0.1847337897119247,3
7368,0.1732822858774559,0.3851693365145117,0.5626422916927175,0.0296910362240767,-0.0126529168727321,0.1752538663397135,3
7380,0.1643706111462059,0.3549668553854202,0.566313393267834,0.0222364916878436,0.0026351197518679,0.1733578878780294,3
7391,0.1589448711691107,0.3297326010668368,0.565854740536483,0.0011152889538075,0.0230191518860672,0.1695659309546611,3
7402,0.1616561537556755,0.3144246334658375,0.5633302707897438,-0.0541725745416405,0.0515567935342261,0.1657739429675022,3
7413,0.1666945676489758,0.3156683846523698,0.5587418637519252,-0.0697028637845336,0.0423839682197459,0.1771498448013976,3
7425,0.1670818937327707,0.3367647092740703,0.5539222506241225,-0.0659756016943534,0.018942338779787,0.1923177346224518,3
7436,0.1620434798394705,0.3644830769979078,0.5523169660643942,-0.0442331784340176,-0.0075569046645321,0.2055896149180313,3
7447,0.1554557616109903,0.3946821691591886,0.565854740536483,-0.0106877381989053,-0.0269217376968116,0.2207574736752949,3
7458,0.1597195233367006,0.4029580285529545,0.576409392530482,0.0296910362240767,-0.0350753472107712,0.2302373970475062,3
7469,0.1647579372300009,0.4033714826258617,0.5819169847553112,0.0719334518700852,-0.0350753472107712,0.2340293539708744,3
7481,0.1659199154813858,0.3847524934737938,0.5828342902180133,0.1116910057667674,-0.0320177499050116,0.2340293539708744,3
7492,0.1643706111462059,0.336351255201163,0.5844414545020503,0.1427516046084264,-0.0299793517011719,0.2359253324325585,3
7503,0.1566177398623753,0.272642049327533,0.589947167002571,0.1464788768765429,-0.013672115974652,0.2510931911898222,3
7514,0.1422803251540301,0.2138976812966001,0.5931596158463365,0.1067213128019242,0.0056927170576274,0.254885179176981,3
7526,0.1353021060377895,0.1824582269165977,0.5883418824428425,0.0489486079130226,0.0260767491918267,0.254885179176981,3
7537,0.1446042816568,0.1977661945175971,0.5809996792926092,-0.0057180452340621,0.0393263709139863,0.2510931911898222,3
7548,0.1674692198165657,0.2991200548326487,0.5731969436867164,-0.0392634854691744,0.0444223831221864,0.2454052558047698,3
7559,0.1744442641288408,0.3458674768136506,0.5695258421115996,-0.0467180300054074,0.0444223831221864,0.2378213108942426,3
7570,0.1845210919154413,0.360758601373932,0.5642475762524459,-0.0324301512813047,0.0423839682197459,0.2207574736752949,3
7582,0.1903341579763315,0.3454540227407434,0.5610351274086801,-0.0100665278505419,0.0352495578077061,0.1999016484691883,3
7593,0.1903341579763315,0.326424968483579,0.5640182498867703,0.0067061922670141,0.0199615378817069,0.188525746635293,3
7604,0.1856862449707917,0.3193894713085348,0.5729676173210407,0.0067061922670141,-0.0085761037664519,0.2055896149180313,3
7615,0.1744442641288408,0.3206332224950672,0.5839809220463906,0.0004940786054442,-0.0116337177708123,0.2188614952136108,3
7626,0.1570050659461703,0.322287038786696,0.5947667801303738,-0.0026119833143089,-0.0055185064606924,0.2264454090603473,3
7638,0.1434423034054151,0.3214601306408817,0.6044041266616706,-0.0026119833143089,0.0087503143633869,0.2302373970475062,3
7649,0.1360799330093449,0.3243543091512322,0.6126636352746057,0.0004940786054442,0.0270959482937466,0.2359253324325585,3
7660,0.1294890399768993,0.3359378011282559,0.6151881050213449,0.0079486231416772,0.0454415822241062,0.2435092773430857,3
7671,0.1240632999998041,0.3487616553240011,0.622071655440227,0.0209940709911169,0.0668448134602254,0.2454052558047698,3
7682,0.1267777573903345,0.3669638014353511,0.6349214508152897,0.0396304221537631,0.0984400691127446,0.2378213108942426,3
7694,0.124450626083599,0.405852207063305,0.6468539407276501,0.0694486002986954,0.1422657306869028,0.2340293539708744,3
7705,0.1147642991847591,0.4869366509024706,0.6463952879962993,0.2191606606599742,0.2757811470104187,0.2928048416020353,0
7716,0.1139896470171692,0.613938219609013,0.634233471718263,0.3775697269659584,0.3471252845280176,0.3231405591165626,0
7727,0.1325908234512247,0.7194300096209476,0.6243667988212908,0.6204635533184047,0.4123541606396941,0.3079727003592989,0
7739,0.1899468318925365,0.6482752414671767,0.5927009631149854,0.9385240252036088,0.4735062737408929,0.222653452136979,0
7750,0.2104878135495324,0.4993470510253087,0.5621836389613665,1.272736047569751,0.5214087484213313,0.1051025079384478,0
7761,0.2294763160673827,0.319802925381442,0.5261587225829182,1.558493622051806,0.5458695936618108,0.0084073578822325,0
7772,0.2473060151378138,0.1444001184022689,0.4880679891890817,1.76722067568554,0.5387351832497711,-0.0674319980316667,0
7784,0.2631959089853045,0.0058116687508922,0.4472253394071392,1.8989176054104724,0.5040823135928915,-0.1356873779712482,0
7795,0.2841210419221298,-0.0694810290997614,0.4020217292287451,2.0330993867067946,0.3746437270742567,-0.3233897426986264,0
7806,0.2965250010154657,-0.1195360836640211,0.3561301399533242,2.108266032239552,0.2880115696306585,-0.4561085145906307,0
7818,0.281409759335565,-0.2213067870197907,0.3175807538281368,2.197720546318476,0.2207442619179406,-0.5926193055335843,0
7829,0.2422676012445136,-0.3896774857917303,0.2866028972188581,2.2573568924304035,0.2044370428900215,-0.7082743023342222,0
7840,0.2112624657171223,-0.6672644501995803,0.2127184535365574,2.255493261385314,0.2380706800477796,-0.7935936126841233,0
7851,0.2445915577472835,-0.6999476557661151,0.1670561906268123,2.218841759230448,0.2829155574224584,-0.8656409806108637,0
7863,0.2775333236936497,-0.7351115857700935,0.1119859075514456,2.2026902494612552,0.2982035940470585,-0.9490642503714994,0
7874,0.2914865871221654,-0.7950963160197476,0.0518666849826007,2.234993268999641,0.2757811470104187,-1.0590311564681318,0
7885,0.2798604550003851,-0.8753538517130988,-0.0100871485116479,2.318856879765358,0.2207442619179406,-1.1974379258727694,0
7897,0.2484679933891988,-0.998634333763476,-0.0750222247596781,2.5487052989801104,0.0862096464925049,-1.508379201247522,0
7908,0.2023507909858723,-1.1934830380405317,-0.1404197131876769,2.630084210843484,0.0535951917380658,-1.5936984494698418,0
7919,0.1349147799539945,-1.4359060724444033,-0.2062739746227178,2.66238723038187,0.0535951917380658,-1.588010483020999,0
7930,0.0771714454288877,-1.6634379822879937,-0.3581744960180953,2.6480993618357034,0.0709216265665056,-1.5538828085831031,0
7942,0.1077860800685184,-1.6100719061726654,-0.4531701234127023,2.637538755379717,0.0627680003539452,-1.5614667224298395,0
7953,0.1015856879238333,-1.626616847024576,-0.5561978127788778,2.690962987830076,0.0026351197518679,-1.629722133433212,0
7964,0.0713583793679975,-1.6671590689441584,-0.6608307867047816,2.8127205214473845,-0.0972466594138898,-1.7358972068616385,0
7976,0.0279524595512359,-1.7250765288292769,-0.7583508838461278,2.9773416912370023,-0.2083396287007658,-1.8799920359064917,0
7987,-0.0487825522956868,-1.904207200400236,-0.8499047360312937,3.265583720350928,-0.3877191215008804,-2.1985172561917707,0
7998,-0.1495444805537602,-2.2020635812839724,-0.9375581602756676,3.2643412894762647,-0.4111607509408392,-2.259188722284616,0
8010,-0.2386802766900533,-2.4664132374231693,-1.006166217823123,3.1556295192244237,-0.3765078979825605,-2.1985172561917707,0
8021,-0.3448711197291875,-2.6029310277421995,-1.1174534158022338,2.9816901738534827,-0.3051637771635624,-2.069590379095553,0
8032,-0.336343596277767,-2.509436183780196,-1.1982232896277254,2.789114467141959,-0.2266852793297263,-1.94255948046102,0
8044,-0.3150279624531811,-2.362161809629957,-1.2945948752163854,2.634432693459964,-0.1777635721501664,-1.8553442537770164,0
8055,-0.327819247630312,-2.275702462842997,-1.3962447266641989,2.56175074682955,-0.168590763534287,-1.7870888738374349,0
8066,-0.3588212083537377,-2.236400603142136,-1.492159539245817,2.567341650142757,-0.179801987052607,-1.7226252955022685,0
8078,-0.3940901056068392,-2.2086822354182987,-1.5777471464748023,2.666114502649986,-0.1920324096728467,-1.6316181118948965,0
8089,-0.4274191976370004,-2.1933776567851098,-1.658975673031645,2.682887232945479,-0.1818403852564467,-1.618346231599317,0
8101,-0.4378833515073958,-2.133392926535455,-1.7255179135637122,2.674811478060882,-0.1981476209829666,-1.6524739371010029,0
8112,-0.4778001617660371,-1.9348197466344248,-1.9221652721304416,2.686614505213595,-0.2399349010518859,-1.747273108695534,0
8123,-0.5192662763598583,-1.881040216446189,-2.015783061606687,2.735690244869537,-0.2684725427000448,-1.866720155610912,0
8135,-0.563059522260415,-1.8330490432786548,-2.096323609066503,2.807129618134178,-0.2878373757323243,-1.9804791739498653,0
8146,-0.643283643665458,-1.8450493782963968,-2.169520073651777,2.877947781050456,-0.3102597893717625,-2.0733823360189216,0
8157,-0.7308701354665712,-1.8855882112481683,-2.238817990020568,2.894099290819648,-0.2745877540101647,-2.194725268204612,0
8169,-0.7707869457252124,-1.9186848708876103,-2.295722884021339,2.795947801329828,-0.2144548400108857,-2.192829289742928,0
8180,-0.7785366422050777,-1.9389542873634968,-2.3423024523937857,2.6288417901467573,-0.1502451296039274,-2.135949780573451,0
8192,-0.8304700854732597,-1.9269573413135657,-2.437527406154068,2.4095538247189454,-0.0911314481037699,-2.0316707166704995,0
8203,-0.8455853271531605,-1.845462832369304,-2.490763078304031,2.160447833815247,-0.041190558520891,-1.88378402389365,0
8214,-0.8525603714654354,-1.7449358802000663,-2.54720931957345,1.916311546054328,-0.0085761037664519,-1.7093534152066892,0
8226,-0.8544970018844102,-1.6382003390015991,-2.6029675817458435,1.7088267502703387,-0.0004224942524924,-1.538714918762049,0
8237,-0.84209621759504,-1.5496703328822932,-2.65207161986503,1.5591148324001691,-0.018768128182852,-1.3927242044468844,0
8248,-0.863411851419626,-1.566632116774921,-2.688784515340505,1.410023962031381,-0.0758434114791698,-1.0779909721487635,0
8260,-0.9374324058760184,-1.6584731444452965,-2.7096663726871357,1.2919937006821882,-0.0717666150714904,-0.8542650787769683,0
8271,-1.0013793073497756,-1.7490704209291386,-2.7193037192184324,1.0727058064999309,-0.0401713594189712,-0.5926193055335843,0
8282,-1.0219202890067718,-1.8549756650139804,-2.752804165850141,0.7676908231759122,0.0067119161595473,-0.2892620371969404,0
8294,-1.019980483783831,-1.8078147889600715,-2.7711615534500336,0.4303726981782711,0.0607296021501055,0.0633908575262346,0
8305,-1.0223076150905668,-1.707287836790834,-2.7895170613256166,0.1191455503030005,0.1137280890387439,0.4293156325449891,0
8316,-1.0083543516620508,-1.6241361225871322,-2.80580863191012,-0.1280967790217985,0.1585729664134228,0.7459448433047939,0
8328,-0.9773492161346596,-1.6034498630705285,-2.816594489994104,-0.309490658751036,0.185072209857742,0.9848386886252246,0
8339,-0.959910017951989,-1.6435786309172038,-2.813152714784662,-0.6306572129118658,0.168764974131222,1.2957799950637676,0
8350,-0.9668882370682296,-1.71101231241481,-2.797319796931509,-0.8455965023424065,0.1483809419970227,1.4038510469538783,0
8361,-0.972313977045325,-1.7635514803843235,-2.778045103868916,-1.0971873448174947,0.1371697184787028,1.517609941037669,0
8373,-0.9366577537084284,-1.763964934457231,-2.731694861862144,-1.3444297657437212,0.136150519376783,1.6560167104423071,0
8384,-0.9188312294419628,-1.7474166046375097,-2.6961285982150467,-1.549429709956321,0.141246531584983,1.8076953912063152,0
8396,-0.9079797494877724,-1.7726508589560932,-2.6463347012745246,-1.6972779967814002,0.1544961533071426,1.957478062444848,0
8407,-0.8862767895793916,-1.835946610756816,-2.5910350918334832,-1.7898385727800774,0.1830338116539023,2.097780841374961,0
8418,-0.8436455219302199,-1.9021365410678897,-2.5345888505640635,-1.8525809808117584,0.2217634610198605,2.2267078116625503,0
8430,-0.8045033638391687,-1.989426184968474,-2.476764771376282,-2.0060203337970264,0.268646736598379,2.359426645682136,0
8441,-0.7847402091537282,-2.1040207425199893,-2.4191718982784853,-2.1402021049154123,0.278838761014779,2.355634688758768,0
8452,-0.7676851622508871,-2.2264709274567416,-2.361806471822055,-2.332777811626936,0.2880115696306585,2.3518427007716087,0
8464,-0.6603355157643336,-2.403947782736072,-2.241111253677323,-2.550201983162675,0.296165179144618,2.418202133313297,0
8475,-0.6196440533381024,-2.4403520749587715,-2.1725031961298678,-2.7533384489992314,0.312472414871138,2.598320553130148,0
8487,-0.5832131778336158,-2.399809853039189,-2.1036658122167364,-2.9341111183801054,0.3481444836299375,2.8561740277484664,0
8498,-0.525857169392304,-2.2976256956105123,-2.0373528980503446,-3.080717137177504,0.390950929403575,3.114027781940901,0
8509,-0.4677233339794367,-2.204134240616319,-1.9689741668685643,-3.1565049930586246,0.4154117746440545,3.316897974361752,0
8521,-0.4208314794085203,-2.144559575471761,-1.8870576612146956,-3.071398961596181,0.3573173089444177,3.4060092105712307,0
8532,-0.3669614057213633,-2.14331921325304,-1.7929793392827904,-3.011762615484253,0.2900499678344981,3.2638104531794343,0
8543,-0.3088275703084959,-2.2268843815296484,-1.692476119663354,-3.0341262389150154,0.2207442619179406,3.0704201530670034,0
8555,-0.2162026646140825,-2.2951449711730687,-1.4930768447085188,-3.162717116898131,0.1585729664134228,2.892197711711837,0
8566,-0.1762858543554412,-2.183861435172622,-1.3962447266641989,-3.329822812565173,0.107612877728624,2.755686920768883,0
8577,-0.1530335901118805,-2.0291414987422427,-1.2945948752163854,-3.424247029786877,0.0749984229741849,2.6533040527741494,0
8589,-0.1483825023023753,-1.9306818169375413,-1.184454309065652,-3.398777344436361,0.0719408256684254,2.55471292425625,0
8600,-0.1204791502493093,-1.9455763304656335,-1.079821335139748,-3.306216758259748,0.1127088899368241,2.4523298388149826,0
8611,-0.0685488817850927,-2.0287280446693354,-0.985284360476492,-3.2186261907419427,0.2747619479084989,2.4523298388149826,0
8622,-0.0402550288442662,-2.201650127211065,-0.9042870400096338,-3.293792520758672,0.3481444836299375,2.6210723567979386,0
8634,-0.0104150463722254,-2.353475885131094,-0.8404967158656723,-3.4932015514801287,0.377701341078617,2.814462408400044,0
8645,0.1469282381595698,-1.9290280006459124,-0.7239312520274079,-3.75411056953654,0.3328564637039382,2.9377013190474184,0
8656,0.1740569380450458,-1.5236091704178951,-0.6307721152825136,-3.9299135459525703,0.2339938836401002,2.949077220881313,0
8667,0.1546811094434004,-1.2629839899026736,-0.5165017948253129,-3.9255650633360895,0.1494001410989426,2.8675499295823617,0
8679,0.1353021060377895,-1.1483894323511583,-0.416686554302903,-3.7870347994232887,0.146342543793183,2.7632708656794103,0
8690,0.1577797181137602,-0.9742269875907072,-0.3421122517992672,-3.641671211500553,0.2370514809458597,2.6969116816480474,0
8701,0.234514729960683,-0.6991207476203005,-0.2691451135796686,-3.5031409475877515,0.479621468352412,2.6059044669768845,0
8713,0.336441811274107,-0.4372518159185466,-0.201913014226266,-3.423625819438514,0.5366967683473305,2.440953936981088,0
8724,0.4294540430523152,-0.194828781514675,-0.1383538961722886,-3.291928889713581,0.5254855615276115,2.1982679483545446,0
8735,0.4666595707243918,-0.0612051697059955,-0.0674506952437694,-3.112398946367526,0.4582182371162928,1.9859178014976917,0
8746,0.4949502488612528,0.0426294150464993,0.0413120329886019,-2.9384596009965853,0.3685285157641368,1.8475110320930537,0
8758,0.5794349571880406,0.2585778329130659,0.0972996215266705,-2.81297479511116,0.2635507243901789,1.737544001741259,0
8769,0.6689580794081287,0.534510981029287,0.1555823534458027,-2.6943233132356665,0.1218817152513043,1.6408488516850437,0
8780,0.680971537613704,0.7665908856748567,0.2276321862026993,-2.493671698970501,-0.0585169933493308,1.5517376465393555,0
8792,0.6131513753019966,0.9349649734146068,0.308860712759542,-1.7842476694668707,-0.3989303283205995,1.276820179383136,0
8803,0.5414547773483742,1.0520402554035653,0.3903185656820601,-1.420217621624842,-0.5028889372912383,1.0000065473824882,0
8814,0.5096749896533929,1.0723096718794514,0.4669586852010839,-1.107126730747181,-0.5660794485962769,0.6928572910586852,0
8826,0.499988662754553,1.014809055035051,0.5390085179579805,-0.8288238636483416,-0.5956362893463556,0.4653393165083593,0
8837,0.4069764309763445,0.7070196094981095,0.6695704089996851,-0.5896572281405205,-0.5803482694203562,0.3610602215416169,0
8848,0.3306287452132167,0.4736993426338181,0.7225748750596634,-0.4312481821904091,-0.5069657503975186,0.3364124394121421,0
8859,0.2852861949774802,0.2527860869245541,0.75768248597541,-0.4001876240604958,-0.3734502839782001,0.3458923627843533,0
8871,0.3038873714115356,0.2151414324831325,0.7641073836629411,-0.5095208896429197,-0.2052820313950063,0.3648522095287758,0
8882,0.3775205997841331,0.4029580285529545,0.7480451394441129,-0.707687530201459,-0.0534209811411308,0.3876039821327758,0
8893,0.4577447211891762,0.7206737608074799,0.7273926084631572,-0.8865964972916883,0.0495183786317856,0.3970839055049872,0
8904,0.5073510331506229,1.043764396009799,0.7209677107756262,-0.7095511714244855,0.0270959482937466,0.3231405591165626,0
8916,0.5197518174399933,1.2551614301065757,0.7237215068880409,-0.3846573246396663,0.0005967048494274,0.1961096915458201,0
8927,0.5050239018438876,1.206346737761038,0.7152326719094303,-0.0082028866275155,-0.0116337177708123,0.053910965217814,0
8938,0.5112274687925383,1.0896849098449868,0.7035295083627452,0.3316000390518334,-0.018768128182852,-0.0503681297489283,0
8949,0.5182025131048135,0.974266833115468,0.6936628354657727,0.6005847712810954,-0.0299793517011719,-0.1072476078546145,0
8961,0.5073510331506229,0.8253352537057894,0.6902210602563317,0.8062058851303129,-0.0493441680348506,-0.1717110619346184,0
8972,0.4759585715394366,0.6275923709183835,0.6918282245403691,0.952190693579348,-0.0707473992709698,-0.2703021904525178,0
8983,0.444956610816011,0.4132977693434457,0.6936628354657727,1.0186603637012095,-0.0666706028632904,-0.4087089287933651,0
8994,0.4232536509076302,0.2560971084756226,0.6890744284279543,0.9571603865441912,-0.0228449412891322,-0.370789328495892,0
9006,0.4058112779209941,0.2258946273465311,0.678747223075322,0.8900694958960301,0.0454415822241062,-0.2873660587352562,0
9017,0.3984489075249239,0.3227004928596033,0.6642921431405311,0.8726755654301106,0.1259585116589837,-0.2437583987975682,0
9028,0.479447681097557,0.5916015327685908,0.5901764933682463,0.9472209904365684,0.1840530107558222,-0.2930539941203086,0
9040,0.542229429515964,0.6280058249912907,0.5396964970550072,1.1453876004612986,0.1809954134500626,-0.4295647539994717,0
9051,0.5406801251807841,0.5229274890522634,0.4967880302576765,1.4566148602938696,0.1035360813209447,-0.6020992289057957,0
9062,0.4654944176690413,0.2887769250743467,0.4710884395075515,1.7895843092942392,-0.0014416933544122,-0.7651537804399082,0
9073,0.3678342728852933,-0.0165284070573405,0.455255521654399,2.153614499627377,-0.0534209811411308,-0.9661280875904472,0
9085,0.3058240018305105,-0.2721887497298649,0.4336856852107415,2.146781165439508,0.013846326571587,-1.0021517715538175,0
9096,0.2949725218763202,-0.4004340696229396,0.3990386067506549,2.093978153515449,0.0811136342843048,-1.0362793528003411,0
9107,0.3151261774495211,-0.4521463294466389,0.3547523020349625,2.07409937147814,0.1127088899368241,-1.0931588619698178,0
9119,0.3461313129769124,-0.528265935443107,0.2494313490120322,2.118205418169238,0.1055744795247844,-1.176582100666663,0
9130,0.3546556616243674,-0.5688081573626897,0.1782988217178376,2.215735697310695,0.0688832116640651,-1.273277250722878,0
9141,0.3744219911137734,-0.6010745198885067,0.0906453974734638,2.349917478607017,0.0046735179557076,-1.3737643887662525,0
9152,0.3670564459137376,-0.6718158339693704,-0.0077920051305844,2.527584086068138,-0.0992850576177295,-1.4723555172841518,0
9164,0.316675481784701,-0.7437975102689558,-0.1066880604659835,2.7481144823706134,-0.2317812915379263,-1.5804265691742625,0
9175,0.234902056044478,-0.8616997004037285,-0.1948001374417083,3.242599181731957,-0.4937161286753589,-1.9273916217037568,0
9187,0.1399531938472947,-1.071029464135969,-0.2744233794388223,3.452568513571308,-0.5670986476981967,-2.130261845188399,0
9198,0.0508173977110016,-1.29235617391814,-0.3526687835175748,3.5954472601005896,-0.5956362893463556,-2.3084840380332405,0
9209,-0.0790130356554881,-1.7383138370979294,-0.5185657321163922,3.669992685107048,-0.5946170902444357,-2.4393068935911417,0
9221,-0.1491571544699653,-2.0034904013829413,-0.5917640764259752,3.681174501911397,-0.5732138590083166,-2.501874338145671,0
9232,-0.2204664263397928,-2.260394495241998,-0.6523400720018622,3.6215381557994695,-0.516138559013398,-2.477226556016196,0
9244,-0.2661963026593243,-2.471791529338774,-0.717735680705552,3.476795778225097,-0.4091223527369996,-2.331235841701031,0
9255,-0.281311544339225,-2.551222156886311,-0.7929979623062144,2.979826532630456,-0.1451491173957274,-1.7832968858502758,0
9266,-0.2762731304459248,-2.490407129523032,-0.8762923058784452,2.740038727486017,-0.0666706028632904,-1.5785305907125782,0
9278,-0.2549574966213389,-2.3083822794417217,-0.9751883612138444,2.5890840734030927,-0.0554593793449705,-1.5159631150942583,0
9289,-0.2286066237074184,-2.058513682757709,-1.089458681671045,2.5654780190976667,-0.1064194680297692,-1.5918024710081575,0
9300,-0.2553448227051339,-1.7403844964302764,-1.3342908931699502,2.6741902575345824,-0.2001860191868063,-1.7776089504652235,0
9312,-0.3258794424073715,-1.8293279566224896,-1.4469559290674223,2.878568991398819,-0.2959909685476831,-2.007022934541024,0
9323,-0.4177296959341949,-2.0105258985579857,-1.5458519844028216,3.0891598389246258,-0.3622390771584811,-2.177661430985665,0
9334,-0.5018270781771879,-2.1420788510343183,-1.6273098373253394,3.216508286033078,-0.3887383206028003,-2.2459168109252454,0
9346,-0.5657739796509453,-2.186759002650784,-1.7016548134633,3.1605992121892665,-0.3530662518440008,-2.206101170038508,0
9357,-0.608405247300117,-2.1747620566008528,-1.7759997896012605,3.0537507574664864,-0.3112789884736823,-2.173869474062296,0
9368,-0.6208060315894873,-2.112293212945944,-1.8521793766646248,2.951250785360187,-0.2847797784265648,-2.147325682407346,0
9380,-0.6006523760162864,-1.8888992327992369,-2.024273776309607,2.8829174740152985,-0.2786645671164449,-2.1283658667267145,0
9391,-0.5987157455973114,-1.7755484264342545,-2.1043537913137627,2.8655235435493798,-0.2898757572375632,-2.141637747022294,0
9403,-0.6180915741989569,-1.747830058710417,-2.179845399280101,2.9003114044812186,-0.3204517970895617,-2.194725268204612,0
9414,-0.6859149113146297,-1.84753010273384,-2.2438650497897377,2.9555992679766665,-0.3510278536401612,-2.23454090909135,0
9425,-0.7855148613213182,-1.967913017306056,-2.289068659968132,2.974235629317249,-0.3449126423300413,-2.18903733281956,0
9437,-0.8606973940290956,-1.972464401075846,-2.327388719727644,2.722023576493798,-0.191013193872326,-1.88378402389365,0
9448,-0.8951916391146072,-1.917444508668889,-2.375344246294144,2.480371977457286,-0.0676898019652103,-1.6941855564494257,0
9460,-0.923482317251468,-1.8578732324921416,-2.4352341424973134,2.225053872892018,0.0617488012520253,-1.5007952563369946,0
9471,-0.9134054894648675,-1.5893856466560614,-2.567171991733071,2.000175156820045,0.1718225881355824,-1.311196944211723,0
9482,-0.8831750061050664,-1.5219553541262665,-2.642892926065084,1.8374176282534544,0.2421474931540598,-1.1253905579460293,0
9494,-0.8746506574576113,-1.4963042567669649,-2.713796126993603,1.731811594227401,0.2594739279824996,-0.9623361306670792,0
9505,-0.9017793573430872,-1.4814131322066837,-2.76886641006897,1.6293116221211013,0.2268594732280605,-0.8315132751091776,0
9516,-0.9645611057614945,-1.4785155647285224,-2.806727817097131,1.4733875804114256,0.1677457750293022,-0.7234421610914857,0
9528,-1.042845421943597,-1.4694161861567523,-2.829213079279181,0.9994028021901996,0.0933440569045446,-0.5110920452984233,0
9539,-1.0947788652117791,-1.4272201479455409,-2.8450459971323343,0.750918103058356,0.1014976664185042,-0.3688933500342078,0
9550,-1.0986521260497288,-1.3461357041063753,-2.862486079269524,0.5502666007504906,0.1229009143532242,-0.1963588440640933,0
9561,-1.0691994696614828,-1.2154096597758572,-2.8888736491166758,0.4135999780607149,0.1432849297888227,0.0027193914333895,0
9573,-1.0556367071207278,-1.2100313678602526,-2.8971331577296104,0.3191758015507571,0.1606113646172625,0.2093815718413995,0
9584,-1.0110688090525817,-1.1707295081593916,-2.9079190158135937,0.2259939948478439,0.1616305637191823,0.3913959390561441,0
9595,-0.9583607136168092,-1.093782994017109,-2.915490545329502,0.1309485774557134,0.1249393125570638,0.5127389023056249,0
9606,-0.951385669304534,-1.05117350173299,-2.9138833810454647,0.0663425383789422,0.0505375944323063,0.5392826318329932,0
9618,-0.9994395021268354,-1.1090875726502976,-2.8971331577296104,-0.0162786415121119,-0.0666706028632904,0.4425875128405686,0
9629,-1.062224425349208,-1.2542946764360003,-2.8647793429262784,-0.1492179919337709,-0.0554593793449705,0.4691312734317275,0
9640,-1.0831527330899988,-1.37426752590312,-2.829213079279181,-0.3660209632990837,-0.0024608924563321,0.6037460548492065,0
9652,-1.029282659402842,-1.43342534800696,-2.798237102394212,-0.6082935793031667,0.0709216265665056,0.8331600699887979,0
9663,-0.9688248674872044,-1.4177039263330533,-2.7938780217220684,-0.8250965913802251,0.136150519376783,1.1042856423492304,0
9674,-0.9114688590458928,-1.4119121803445416,-2.7885997558629145,-0.999657065676038,0.1708033890336626,1.3564514611566123,0
9685,-0.8831750061050664,-1.4330085049662422,-2.77483265502515,-1.13818732958884,0.1626497628211022,1.5536336250010396,0
9697,-0.8610847201128906,-1.461140326762987,-2.7484450851779982,-1.2506266876248264,0.1208624994507836,1.6654966338145183,0
9708,-0.8335686941436197,-1.4880317863410095,-2.710354351784161,-1.4313994384291917,-0.0044993073587726,1.6920403944056772,0
9720,-0.8339560202274144,-1.541397862456338,-2.6578085384555346,-1.4916569948894831,-0.0544401802430506,1.6882484374823092,0
9731,-0.8676756131453361,-1.6166905603069917,-2.594937399498584,-1.5481872892595945,-0.0625937897570102,1.6939363728673615,0
9743,-0.8820130278536814,-1.7552756209905578,-2.4815843845040853,-1.6308084691506486,-0.0279409367987314,1.6939363728673615,0
9754,-0.8626371992520359,-1.8289145025495828,-2.4416590401848444,-1.7345507092846293,0.0352495578077061,1.7072082842267315,0
9765,-0.8126435612067943,-1.8661457029180968,-2.4125176742252785,-1.8432628052304356,0.107612877728624,1.7602958054090494,0
9777,-0.7486966597330368,-1.9141334871178208,-2.3891132268562174,-1.942656715416982,0.168764974131222,1.8531989985418968,0
9788,-0.6882388678173995,-2.009282147371453,-2.3670847376812088,-2.017823350771803,0.2023986446861818,1.980229866112639,0
9799,-0.6312701854598828,-2.096571791272038,-2.337026066258941,-2.155732404336242,0.1494001410989426,2.310131081423186,0
9811,-0.6192567272543074,-2.1515950726468054,-2.292739761543248,-2.2408384459766224,0.0821328333862247,2.471289654495614,0
9822,-0.6696376913833441,-2.192964202712203,-2.231473907146026,-2.330292960055546,0.0454415822241062,2.575568749462357,0
9833,-0.7828004039307879,-2.3898801773537937,-2.061903977247783,-2.437141414778326,0.080094435182385,2.632448258631834,0
9845,-0.7448202240911215,-2.457727312924308,-1.972874594809356,-2.5986565226481906,0.190168222065942,2.685535779814152,0
9856,-0.6541351236196484,-2.4858557457532413,-1.899907456589758,-2.8272626636573257,0.3430484714217374,2.7879186478088847,0
9867,-0.5417438884358291,-2.485028837607427,-1.848508275089508,-3.068292899676428,0.4908326918707318,2.975620981472473,0
9879,-0.425866718497855,-2.4250441073577726,-1.7994042369703214,-3.257141323941898,0.5917337035356113,3.2220988338310117,0
9890,-0.3448711197291875,-2.287285954820021,-1.736072565557711,-3.406231878794657,0.5662536257960101,3.533040078141973,0
9902,-0.3192917241788914,-2.147043688877015,-1.650484958328725,-3.3583985598354427,0.4877750945649724,3.483744513883024,0
9913,-0.3022398520800158,-2.0270708394098955,-1.5424102091933805,-3.2335352798144084,0.4174501728478942,3.316897974361752,0
9924,-0.162723091814686,-1.8140199890214903,-1.2929895906566569,-3.055247451826988,0.3644517193564574,3.0950679351964783,0
9936,-0.0948997546990132,-1.723422712537648,-1.171835719780574,-2.849005086917661,0.3297988496995778,2.865653951120678,0
9947,-0.026304940219716,-1.6530948525296916,-1.0623831327268671,-2.6259900018907785,0.3053380044590982,2.645720138927413,0
9958,0.0291144378026208,-1.6464761983953653,-0.9676168316979356,-2.4035959745432134,0.2829155574224584,2.4333699920705603,0
9969,0.0500427455434117,-1.7010826367294152,-0.882487877200301,-2.2029445129470933,0.2615123261863393,2.2267078116625503,0
9981,0.0682565958936722,-1.7714104967373716,-0.805389104949926,-1.944520346462072,0.2604931270844194,1.9062865197242145,0
9992,0.1054621235657486,-1.8276741403308607,-0.7436645978213526,-1.9041415720390904,0.2645699234920988,1.8228632499635784,0
10003,0.1449916077405949,-1.8665591569910045,-0.6952504185235016,-1.884884000350144,0.2523395175704598,1.7925275324490515,0
10015,0.200023659679137,-1.9058610166918653,-0.6073676679134523,-1.8674900698842245,0.2156482497097406,1.7849435875385244,0
10026,0.2244410769780481,-1.8711105407607944,-0.5541319957634895,-1.855065832383148,0.1575537673115029,1.7678797503195764,0
10037,0.2461408620824633,-1.7871319184112782,-0.4949319583816554,-1.8407779536590452,0.0913056587007049,1.737544001741259,0
10049,0.252731755114909,-1.6973581611054394,-0.4320608194247046,-1.8078537237722965,0.0383071718120665,1.7072082842267315,0
10060,0.2492426455567887,-1.6489569228328085,-0.3712536177588332,-1.7469749467857054,0.0158847247754266,1.6825604710334658,0
10071,0.2628085829015095,-1.632822047085995,-0.3230668851023489,-1.6320509000253118,0.0444223831221864,1.644640808608412,0
10083,0.3104750896400159,-1.614619900974645,-0.2845193787014701,-1.6339145310704015,0.0484991795298657,1.621889004940621,0
10094,0.3600814016014627,-1.6034498630705285,-0.2452820134792563,-1.6693234598594946,0.0311727614000268,1.6086171246450416,0
10105,0.4116275187858498,-1.5943504844987588,-0.1716250164383224,-1.7283385956230592,0.0016159039513472,1.6162010695555686,0
10117,0.4104623657304993,-1.5529813544333615,-0.1424836504787562,-1.8146870477822297,-0.0309985508030918,1.6560167104423071,0
10128,0.3872101014869386,-1.43342534800696,-0.1078365720186696,-1.9202930818082828,-0.0473057698310109,1.7299600568307316,0
10139,0.362408532908198,-1.2443650007506055,-0.066304063415392,-2.007883964842117,-0.0360945630112918,1.815279305053052,0
10151,0.3678342728852933,-1.018903750239362,-0.0199538214086204,-2.0383233533354126,-0.0004224942524924,1.8550949770035807,0
10162,0.4046492996696092,-0.8273660675133754,0.0259377678668003,-1.9134597476204132,0.0770368378766255,1.686352459020625,0
10173,0.4561954168539963,-0.7227011856472552,0.0635698485292857,-1.8202779612733728,0.0923248578026248,1.5422577231671442,0
10185,0.5042492496762976,-0.6829858718734867,0.0892694392794107,-1.7413840434724988,0.0841712482886652,1.437978752455564,0
10196,0.56858347723385,-0.5733561521646693,0.123687191373822,-1.6780204250924542,0.0597104030481857,1.398163111568826,0
10207,0.5976488075383011,-0.4732426540683393,0.1516819255050105,-1.6177630213012089,0.018942338779787,1.390579166658299,0
10219,0.5976488075383011,-0.4058123615385441,0.1927557813769373,-1.5438388066431143,-0.0371137621132117,1.362139427605456,0
10230,0.5817589136908105,-0.3367248637493094,0.2411699606747883,-1.463081247619214,-0.0860354358955699,1.3014679615126108,0
10241,0.5755585215461252,-0.2320599818831893,0.2941763064590755,-1.3872933917380932,-0.1104962811360494,1.227524615124186,0
10253,0.5805969354394255,-0.1381516838482783,0.3444269764066393,-1.2108691235502076,-0.0972466594138898,1.0682619583858604,0
10264,0.6042365257667811,-0.0674103697674147,0.3838936679945288,-1.0990509758625846,-0.0880738507980104,0.9905266240102768,0
10275,0.6519062073092531,0.0169817066550086,0.4153301773351585,-0.974187380325522,-0.0972466594138898,0.9146872991601684,0
10287,0.7112020209735053,0.146467388766805,0.4834795821512631,-0.8269602224253151,-0.1237458861596082,0.8388480364376408,0
10298,0.6887244088975346,0.117508658824246,0.5137675799392065,-0.6623390221018882,-0.1431107191918877,0.7781765703447958,0
10310,0.6612083829282634,0.0711746909161513,0.5392378443236562,-0.514490582607763,-0.1278226992658884,0.7326729630092144,0
10321,0.6468677934159528,0.0380814202445198,0.5637889235210949,-0.4200664060978051,-0.0829778218912095,0.6833773676864742,0
10332,0.6453184890807729,0.0116034147394041,0.583751595680715,-0.3840361142913029,0.0240383509879871,0.5696183804113111,0
10343,0.6441565108293881,-0.0152880448386189,0.5931596158463365,-0.4088845892934555,0.0699024107659849,0.5411786102946773,0
10355,0.6340796830427876,-0.0032910987886881,0.5943081273990228,-0.4399451474233689,0.1198433003488638,0.5525545121285727,0
10366,0.6228408770048021,0.0699343286974295,0.584670780867726,-0.4529905952728085,0.1677457750293022,0.5847862391685748,0
10377,0.6379561186847028,0.281331362794206,0.5403844761520336,-0.4287633306190193,0.2054562419919413,0.5885781960919428,0
10388,0.6588812516215281,0.3272518766293935,0.514914211767584,-0.3610512703342404,0.2258402741261406,0.535490674909625,0
10400,0.672059862882454,0.2784337953160448,0.4972466829890276,-0.255445226130251,0.2258402741261406,0.4482754482256209,0
10411,0.6724471889662489,0.1675671023563162,0.4944928868766128,-0.1504604126304976,0.2085138559963017,0.368644166452144,3
10422,0.6666341229053587,0.0571104745016843,0.498393314817405,-0.0945513489646225,0.1840530107558222,0.3155566142060355,3
10434,0.6728345150500439,0.0020871931269165,0.4965587038920011,-0.1610210190864839,0.1300353247652639,0.2624690930237175,3
10445,0.6918230175678943,0.0364242149850803,0.4908217853014963,-0.2138240411884786,0.0943632560064644,0.2454052558047698,3
10456,0.6984139106003401,0.1253676751772938,0.4848555403453159,-0.2225209860655655,0.0566528057424261,0.2321333755091903,3
10467,0.6619830350958535,0.2068655730893667,0.4786599690234602,-0.1821422319984563,0.0301535622981069,0.2188614952136108,3
10479,0.6488075986388933,0.1878365188322023,0.480955112404524,-0.1212634550118652,0.0199615378817069,0.2150695072264519,3
10490,0.6402800751874727,0.1415025509241076,0.4853141930766669,-0.0672180223910802,0.0240383509879871,0.2245494305986632,3
10501,0.6290412691494873,0.081104366601546,0.4905924589358209,-0.0367786338977846,0.036268756909626,0.2359253324325585,3
10512,0.6096622657438764,0.0091226903019608,0.4967880302576765,-0.0398846958175378,0.0546143908399856,0.249197212728138,3
10523,0.5856353493327257,-0.0529326992800405,0.498393314817405,-0.17593010815895,0.1351313202748631,0.3250365375782467,3
10535,0.5755585215461252,-0.0376247316790411,0.4912804380328472,-0.29023308706209,0.1962834333760619,0.3819160467477235,3
10546,0.596874155370711,0.0885499288816867,0.4793479481204867,-0.3772027801034332,0.24622430626034,0.4179397307110937,3
10557,0.6472551194997478,0.2676806004526463,0.4648928681856958,-0.391490658827536,0.2615123261863393,0.4141477427239348,3
10568,0.7228281530952856,0.5034849807221917,0.4385052983385444,-0.3237785374751388,0.2339938836401002,0.3743321018371964,3
10580,0.7208915226763107,0.5134112674397757,0.4334563588450661,-0.1964301107225591,0.1789569985476221,0.3155566142060355,3
10591,0.7158531087830105,0.4579779209599114,0.4313924215539866,-0.0479604507021342,0.1147472881406638,0.2529891696515062,3
10602,0.7011251931869048,0.3615888984875572,0.430473236366976,0.0824940583260714,0.0535951917380658,0.2036936053925566,3
10613,0.6639196655148284,0.2523726328516469,0.4389639510698954,0.1688425104852421,0.0016159039513472,0.1695659309546611,3
10625,0.6116020709668167,0.1220600425940361,0.4566314798484518,0.1694637208336054,-0.0197873272847719,0.161981986044134,3
10636,0.5662595207310803,-0.0020473476021557,0.4713177658732271,0.0713122415217218,0.0311727614000268,0.2093815718413995,3
10647,0.5519189312187694,-0.0541730614987621,0.4770546844637318,-0.0734301360526501,0.1045552804228645,0.2738449948576129,3
10658,0.6057890049059267,0.1626022645136189,0.4635169099916428,-0.2113391896170888,0.168764974131222,0.3288285255654056,3
10670,0.6453184890807729,0.3326301685449981,0.4545675425573725,-0.2840209734005201,0.201379445584262,0.3553722861565646,3
10681,0.6743838193852237,0.4418430452130977,0.4490599503325432,-0.2647634017115741,0.1993410306818214,0.3477883412460374,3
10692,0.6894990610651245,0.4621158506567944,0.4469941333171549,-0.1690967739710803,0.1667265759273823,0.3003887554487719,3
10703,0.6875624306461495,0.4083329315007483,0.4502065821609207,-0.0392634854691744,0.118824101246944,0.2283413875220314,3
10715,0.6685707533243336,0.3036714386024389,0.4582386441324891,0.1334334188491669,0.0505375944323063,0.135438225452975,3
10726,0.6468677934159528,0.1998334648821332,0.4655808472827222,0.1278425155359603,0.057672004844346,0.1449181488251862,3
10737,0.6344670091265824,0.1410890968512004,0.4685639697608124,0.0800092067546816,0.0821328333862247,0.1790458543268724,3
10748,0.626326811758957,0.107165529065944,0.4660395000140732,0.0141607368032472,0.1167857030431043,0.2207574736752949,3
10760,0.6402800751874727,0.1274383345096407,0.4499772557952451,-0.0628695397746003,0.1565345515109823,0.2643650714854016,3
10771,0.6736091672176339,0.2076924812351811,0.4371274604201827,-0.1361725440843313,0.1911874211678619,0.3003887554487719,3
10782,0.7108146948897103,0.305738708966975,0.4240483386794446,-0.1740664669359236,0.206475457792462,0.3174526237315102,3
10793,0.7422039816969311,0.3864096987332334,0.4162474827978605,-0.1591573778634574,0.1962834333760619,0.3117646572826672,3
10805,0.7639069416053118,0.4195029694048647,0.4155595037008341,-0.0976574108843757,0.1595921655153426,0.2852208966915082,3
10816,0.7712724868053475,0.405852207063305,0.4226723804853916,0.0545395112262292,0.0434031840202665,0.2017976269308724,3
10827,0.7735964433081173,0.3682075526218835,0.4396519301669218,0.0930546444261848,-0.0095953028683718,0.1506060842102386,3
10838,0.7685580294148172,0.3107035468096724,0.4644342154543448,0.0918122237294581,-0.0452673716271712,0.1183743882340273,3
10849,0.7495695268969667,0.250718816560018,0.4933462550482353,0.0551607215745926,-0.0534209811411308,0.108894464861816,3
10861,0.7084875635829749,0.2072790271622739,0.5422209668017464,-0.0044756143593989,-0.0330369490069315,0.1164783787085525,3
10872,0.7015125192706998,0.2374781193235547,0.5513977808773833,-0.0665968018647804,0.0107887292658274,0.135438225452975,3
10883,0.7092653905545304,0.2871231087827179,0.5502511490490058,-0.1107028587338154,0.0597104030481857,0.1562940506590816,3
10894,0.7228281530952856,0.3392488226793244,0.5422209668017464,-0.1231270860569552,0.0953824551083843,0.1695659309546611,3
10906,0.7313556765467062,0.3719286392780485,0.5325836202704495,-0.0988998315811024,0.107612877728624,0.1714619094163452,3
10917,0.726704588737201,0.3537264931666986,0.5215684358207909,0.0048425612219241,0.0872288455944247,0.1543980411336069,3
10928,0.7139133035600702,0.3053252548940678,0.510555131095441,0.0278274051789866,0.0841712482886652,0.1506060842102386,3
10939,0.707712911415385,0.2676806004526463,0.5013764372954952,0.016645588374637,0.0923248578026248,0.1543980411336069,3
10951,0.7243774574304654,0.2287921948246923,0.4827897233299278,-0.0181422827351383,0.1045552804228645,0.161981986044134,3
10962,0.7332923069656812,0.2399622327288088,0.4779719899264338,-0.0634907501229636,0.1116896908349042,0.1657739429675022,3
10973,0.734454285217066,0.2660233951932066,0.4759061729110455,-0.1057331657689721,0.1127088899368241,0.1638779645058181,3
10984,0.7270919148209959,0.3053252548940678,0.4761354992767211,-0.1343089028613048,0.1096512759324637,0.1543980411336069,3
10995,0.7115893470573003,0.3553803094583274,0.4713177658732271,-0.1448695093172911,0.107612877728624,0.1430221703635021,3
11007,0.6945374749584247,0.3984066447831643,0.4564021534827764,-0.1020058935008556,0.1198433003488638,0.1221663451573955,3
11018,0.6836859950042343,0.4128843152705386,0.4341462176664012,-0.0610059087295102,0.136150519376783,0.1278542805424479,3
11029,0.680196885446114,0.3864096987332334,0.4079879741849253,-0.0274604583164615,0.1565345515109823,0.1449181488251862,3
11040,0.6848479732556192,0.3355243470553486,0.3799932400537366,-0.0131725897702951,0.1728417872375022,0.1638779645058181,3
11052,0.7305778495751508,0.2693344167442751,0.3352482826066934,-0.0131725897702951,0.1728417872375022,0.1752538663397135,3
11063,0.753833288622677,0.2242408110549021,0.3292820376505131,-0.0168998518604752,0.1483809419970227,0.1809418327885565,3
11074,0.7573192233768317,0.1563970644521997,0.3386900578161344,-0.0274604583164615,0.1065936786267042,0.1809418327885565,3
11085,0.7487948747293767,0.1212331344482215,0.3563594663189999,-0.057899846809757,0.0617488012520253,0.1847337897119247,3
11097,0.7472423955902313,0.1435698212886438,0.3749443005602583,-0.1075967968140622,0.0270959482937466,0.2017976269308724,3
11108,0.7569318972930368,0.1965224433310647,0.3916964036004218,-0.1734452565875602,-0.0146913150765718,0.249197212728138,3
11119,0.7677833772472271,0.2536129950703685,0.4095932587446538,-0.1622634397832106,-0.0259025385948917,0.2662610499470857,3
11130,0.769332681582407,0.3107035468096724,0.4309337688226356,-0.1212634550118652,-0.0340561481088513,0.275740973319297,3
11142,0.7681707033310222,0.3562106065719526,0.4525017255419842,-0.0560362055867306,-0.041190558520891,0.2776369517809811,3
