timestamp,ax,ay,az,gx,gy,gz,label
78,-0.14644587188340044,0.5051387970138206,0.46718801156675954,-0.021248344654891567,0.3104340166672983,0.37812408982435525,junk
90,-0.11660271460739409,0.5287192350407751,0.46925194885783883,-0.017521072386775038,0.3083956017648578,0.38381202520940766,junk
101,-0.09180114602865343,0.5489886515166612,0.48531419307666696,-0.008824096975878874,0.29616517914461804,0.38002003722224875,junk
112,-0.07746055651634273,0.5597452353478704,0.5036715806765589,0.013539526454883885,0.25947392798249963,0.34778834124603747,junk
123,-0.06971086003647767,0.5527131271406369,0.5126209481108291,0.019130429768090474,0.24622430626034,0.3212445806548785,junk
135,-0.06428512005938251,0.5398892729448915,0.5146848854019086,0.020372860642753586,0.23195546873765974,0.2947008200637195,junk
146,-0.046845921876711986,0.5473348352250322,0.5224876210078016,0.020372860642753586,0.21768664791358028,0.2643650714854016,junk
157,-0.02707959238730603,0.5626428028260316,0.5270760280456201,0.022857702036207,0.20239864468618182,0.2302373970475062,junk
168,-0.0003382185856249556,0.5762935651675914,0.5314351087177631,0.02906982587571335,0.18507220985774203,0.18662976817360888,junk
180,0.02562532824450056,0.5692614569603579,0.536254721845566,0.03652436023401,0.16468817772354272,0.14302217036350218,junk
191,0.04345502731493164,0.5427834514552422,0.548416538123602,0.04149406337678963,0.14022733248306316,0.10131051995128897,junk
202,0.055081159436711984,0.5225140349793561,0.5683792102832221,0.0296910362240767,0.10455528042286456,0.04443104184560279,junk
213,0.07252035761938251,0.5183761052824731,0.5865053917931298,0.020372860642753586,0.10557447952478441,0.036847096935075666,junk
224,0.0992617314210635,0.5179626512095659,0.5956840855930756,0.013539526454883885,0.10659367862670424,0.027367173562864413,junk
236,0.12561577913894956,0.5092767267107036,0.601191677817905,0.00608498191865083,0.09742087001082483,0.006511379420548444,junk
247,0.1415056729864402,0.49396875910970417,0.6209250236118496,-0.00261198331430893,0.07805603697854535,-0.025720347619453528,junk
258,0.14072784601488475,0.499760505098216,0.6298743910461201,-0.011308948547268693,0.055633589941905516,-0.057952074659455496,junk
269,0.136854585176935,0.4947956672555186,0.6381338996590552,-0.018142282735138394,0.03423035870578634,-0.08070387832724621,junk
280,0.1294890399768993,0.4716286833014713,0.6505250423027669,-0.022490765351618272,0.015884724775426698,-0.09397572755903504,junk
292,0.11980271307805938,0.4430834074318194,0.6668166128872705,-0.02932408936155157,0.0046735179557076114,-0.09207974909735095,junk
303,0.10662410181713362,0.41784915311323595,0.6789784291653064,-0.05603620558673061,0.028115147395666465,-0.06932797649335086,junk
314,0.08802292538307815,0.3930283528675597,0.6803543873593593,-0.07218771535592343,0.05767200484434602,-0.061744031582823704,junk
326,0.07329500978697244,0.37110173113223405,0.6711756935594134,-0.08461195285699973,0.08620964649250491,-0.04657617282556014,junk
337,0.056630463771891855,0.3384219145335099,0.6486885516530542,-0.09082407669650606,0.10557447952478441,-0.02192839069608529,junk
348,0.05391918118532704,0.33387053076371975,0.6466246143619747,-0.09393012843832284,0.11372808903874396,0.008407357882232576,junk
359,0.06631996547469733,0.3346974389095342,0.6477712461903521,-0.09579376966134931,0.11168969083490429,0.04443104184560279,junk
371,0.07949540193165763,0.3392488226793244,0.6466246143619747,-0.09765741088437575,0.09945926821466453,0.07097480243676174,junk
382,0.09073420796964297,0.35248613094797693,0.6424929803311982,-0.10200589350085564,0.08009443518238503,0.08045469474518235,junk
393,0.10119836184003837,0.3777203852665604,0.6390512051217573,-0.11318771030520522,0.053595191738065824,0.0956225845662366,junk
404,0.1081734061523135,0.3967494395237247,0.6337748189869122,-0.1175361827437487,0.05461439083998568,0.12027036669571144,junk
416,0.11282449396181873,0.40419839077167613,0.6259720833810193,-0.11815739309211207,0.060729602150105554,0.14491814882518628,junk
427,0.11050053745904892,0.419916423477772,0.6216130027088761,-0.11380892065356857,0.07092162656650564,0.16577394296750225,junk
438,0.12057736524564933,0.48652319682956346,0.6257427570153437,-0.10076347280412894,0.08417124828866523,0.18662976817360888,junk
449,0.12871438780930938,0.5179626512095659,0.6296431849561358,-0.0821271012856099,0.09945926821466453,0.20179762693087247,junk
461,0.13801656342831983,0.5340975269563798,0.6303330437774711,-0.06286953977460032,0.11067049173298445,0.20938157184139958,junk
472,0.1457662599081849,0.532026867624033,0.6266619422023545,-0.04733924035377085,0.11882410124694402,0.20938157184139958,junk
483,0.1539064572758105,0.5340975269563798,0.6234494933585888,-0.03491500285269456,0.1229009143532242,0.20938157184139958,junk
495,0.15545576161099037,0.554780397505173,0.6259720833810193,-0.013793800118658514,0.11067049173298445,0.188525746635293,junk
506,0.15196665205287008,0.5829122193019177,0.6317090019715239,-0.00944531750217863,0.10659367862670424,0.17146190941634523,junk
517,0.15119199988528015,0.6060792032559651,0.6376752469277043,-0.006339255582425458,0.10863207683054392,0.1525020626719228,junk
528,0.13026369214448927,0.630486549428734,0.6294138585904602,-0.0038544040110356395,0.11780490214502418,0.13354224699129094,junk
540,0.12445062608359908,0.6428969495515722,0.6149587786556694,0.001115288953807595,0.13309292207102344,0.11647837870855257,junk
551,0.13336547561881462,0.6557241927151282,0.6032556151089844,0.009191043838404002,0.15245775510330292,0.10699848640013196,junk
562,0.1473187390473304,0.6515862630182453,0.6000431662652186,0.016645588374637057,0.17488018544134196,0.09941454148960484,junk
573,0.16126882767188055,0.6333841169068952,0.601191677817905,0.022857702036207,0.19832183157990166,0.08235067320686648,junk
585,0.1814224832450815,0.6155954248684525,0.6044041266616706,0.011675885231857419,0.2360322818439399,0.02926318308833919,junk
596,0.20235079098587233,0.59780673283001,0.6092218600651647,-0.0019907729659455766,0.24724350536225986,0.008407357882232576,junk
607,0.21320227094006275,0.5775339273863132,0.6105996979835263,-0.013172589770295158,0.2482627044641797,-0.012448467323874035,junk
618,0.22947631606738278,0.565123527263475,0.6078459018711116,-0.013793800118658514,0.23399388364010024,-0.04278421590219187,junk
630,0.24536620991487346,0.5353378891751014,0.6154174313870203,-0.016278641512111926,0.20239864468618182,-0.09018377063566682,junk
641,0.2519571029473191,0.5001739591711233,0.6273499212993809,-0.03491500285269456,0.1585729664134228,-0.1603351601007231,junk
652,0.25583036378526886,0.47080177515565685,0.6383632260247306,-0.062248329426236954,0.10761287772862407,-0.22859054004030463,junk
663,0.2511792759757636,0.4530130831172141,0.6436414918838845,-0.08709680442838953,0.05767200484434602,-0.27599015690136086,junk
675,0.24110562299312868,0.44804824527451675,0.6390512051217573,-0.1051119554206088,0.018942338779787057,-0.3063259054796787,junk
686,0.23219077345791322,0.4633562128755161,0.6262014097466947,-0.1119452794305421,-0.008576103766451994,-0.3139098193264152,junk
697,0.22250127175510775,0.4931418509638897,0.6099098391621911,-0.09455134896462258,0.0016159039513472541,-0.2892620371969404,junk
708,0.2143642491914477,0.5154819267721226,0.5945374537646982,-0.0672180223910802,0.0199615378817069,-0.2513423437080954,junk
720,0.20467474748864223,0.49231494281807525,0.5722796382240143,-0.0398846958175378,0.040345570015906225,-0.20773474589798868,junk
731,0.20583672574002715,0.4629427588026089,0.5725089645896897,-0.02186955500325492,0.055633589941905516,-0.16791907394745959,junk
742,0.20118563793052185,0.4339840288600497,0.5796218413742474,-0.018763493083501746,0.06174880125202539,-0.1337913684457735,junk
753,0.19924900751154695,0.41784915311323595,0.5892591879055443,-0.033672582155967856,0.055633589941905516,-0.1110395958417734,junk
765,0.20312544315346226,0.4298460991631668,0.6005036987208785,-0.061627119077873604,0.04238396821974591,-0.09207974909735095,junk
776,0.20893850921435245,0.4670772995316811,0.6124343089089302,-0.1150513413502953,0.0036543188537877715,-0.03899225897882366,junk
787,0.2147515752752426,0.5229274890522634,0.6232182872686045,-0.12064224466350187,-0.008576103766451994,-0.00676050087503102,junk
798,0.21940266308474793,0.585809786780079,0.6307916965088222,-0.11070285873381541,-0.010614518668892504,0.025471195101180306,junk
810,0.22172661958751774,0.6375186576359675,0.6362974090093425,-0.08709680442838953,-0.0004224942524924265,0.05770292214118228,junk
821,0.227152359564613,0.6751667010451998,0.6335454926212366,-0.053551354015340794,0.02607674919182678,0.0918305965790777,junk
832,0.2318034473741182,0.6689615009837807,0.6353801035466405,-0.016278641512111926,0.06480641525638575,0.13354224699129094,junk
843,0.23219077345791322,0.6569645549338499,0.6420343275998472,0.019130429768090474,0.11270888993682412,0.18473378971192472,junk
855,0.22327592392269768,0.6441407007381045,0.6411170221371454,0.0433576944218797,0.16672657592738238,0.23402935397087443,junk
866,0.2085511831305575,0.6135247655361058,0.6335454926212366,0.053297090529502565,0.21870584701550014,0.2605731145620334,junk
877,0.19653455012101662,0.5775339273863132,0.6218423290745517,0.02223649168784365,0.2798579601166989,0.2643650714854016,junk
888,0.1957598979534267,0.5605721434936848,0.6066973903184255,-0.007581676279152166,0.3012611913528181,0.2700530379342446,junk
900,0.19924900751154695,0.5729825436165229,0.5885712088085179,-0.0330513616296681,0.32266443928753813,0.28142893976814,junk
911,0.21785018394560243,0.6515862630182453,0.5461213947425383,-0.04485438878238104,0.3410100732178978,0.3003887554487719,junk
922,0.2380038395188034,0.6913015767920135,0.5240929055675301,-0.03739985442408438,0.3573173089444177,0.32503653757824674,junk
933,0.26435788723668935,0.714051717705343,0.5000004791014421,-0.014415010467021866,0.37362452797233686,0.34210040586098506,junk
945,0.30698915488586104,0.726878960868899,0.47292305043295535,0.013539526454883885,0.39197012850549484,0.33830841787382615,junk
956,0.3616307059366426,0.7306000475250639,0.4488306239668677,0.037766791108673106,0.4092965633339346,0.30607672189761487,junk
967,0.4042619735858142,0.7061927013522951,0.4355221758604542,0.053297090529502565,0.37158612976849714,0.1809418327885565,junk
978,0.4170500839589794,0.651172808945338,0.4401105828982728,0.03714558076030976,0.29616517914461804,0.0956225845662366,junk
990,0.4162754317913896,0.6007009113403604,0.45961460232654194,0.008569833490040648,0.19628343337606194,0.010303336343916681,junk
1001,0.4162754317913896,0.5758801110946843,0.4791186217548113,-0.023111975699981625,0.09844006911274468,-0.06364004110829852,junk
1012,0.40155069099924934,0.5767070192404987,0.5002298054671177,-0.045475599130744386,0.013846326571587018,-0.1243114761373529,junk
1024,0.3868227754031436,0.5671907976280112,0.5142262326705576,-0.051066512621887376,-0.05545937934497052,-0.16791907394745959,junk
1035,0.3647324894109679,0.5460944730063106,0.5355667427485397,-0.0398846958175378,-0.11355389514040981,-0.19825482252577745,junk
1046,0.3310160712970117,0.5067926133054494,0.5592005164832763,-0.018763493083501746,-0.15941795491840766,-0.2096307243596728,junk
1057,0.2856735210612753,0.4397757748485616,0.5773266979931839,0.0004940786054442416,-0.18693639746464671,-0.20583873637251393,junk
1069,0.23916581777018825,0.3698613689135124,0.5915543312866081,-0.01503622081538522,-0.1624755522241672,-0.1603351601007231,junk
1080,0.20118563793052185,0.33635125520116305,0.6099098391621911,-0.046718030005407495,-0.12476508526152805,-0.11862350968850989,junk
1091,0.1748347650166014,0.3446271145949289,0.6305623701431465,-0.07467256692731325,-0.09113144810376997,-0.06743199803166672,junk
1102,0.136854585176935,0.4286057369444452,0.6702583880967113,-0.08958164582184296,-0.06972820016904996,-0.020032412234401154,junk
1114,0.11592627743614409,0.47535315892544705,0.6881552432409436,-0.09144528704486943,-0.052401782039211,0.0027193914333895615,junk
1125,0.09848707925347357,0.5171357430637514,0.698711774959251,-0.08461195285699973,-0.03303694900693151,0.0008234129717054562,junk
1136,0.08414648974116286,0.5473348352250322,0.7021535501686923,-0.07156650500756007,-0.006537705562612305,-0.01434444578555814,junk
1147,0.07290768370317743,0.5655369813363823,0.7012343649816816,-0.05168772297025073,0.029134346497586304,-0.023824369157769393,junk
1159,0.06864392197746721,0.5787742896050347,0.6957286524811608,-0.0013695626175822232,0.13513132027486313,-0.01434444578555814,junk
1170,0.07058372720040763,0.5845660355935466,0.6856326532185133,0.015403157499973945,0.18914902296402222,0.004615400958864338,junk
1181,0.07755877151268276,0.5870501489988007,0.6725535314777753,0.02161528133948029,0.2288978714319002,0.027367173562864413,junk
1192,0.09577262186294322,0.5990470950487315,0.6594744097370373,0.020372860642753586,0.25233951757045986,0.04822299876897102,junk
1204,0.1542937833596055,0.6375186576359675,0.6211543499775253,0.013539526454883885,0.2676275374964592,0.06907879291128699,junk
1215,0.17909535193834608,0.6528266252369669,0.5963720646901021,0.0017364993021709509,0.2747619479084989,0.08235067320686648,junk
1226,0.2042874214048472,0.667304295724341,0.5743454552394025,-0.013793800118658514,0.27170435060273934,0.08614266119402536,junk
1237,0.23025414303893835,0.6892309174596668,0.5610351274086801,-0.030566520236214683,0.25641631397813924,0.08424668273234123,junk
1249,0.2515666020595586,0.7181896474022259,0.5564467203708617,-0.044233178434017674,0.23399388364010024,0.08614266119402536,junk
1260,0.26397056115289447,0.7359783394406686,0.5534635978927717,-0.04858166105049756,0.1606113646172625,0.10699848640013196,junk
1271,0.2670691698232543,0.7297731393792496,0.5502511490490058,-0.03926348546917444,0.12086249945078369,0.11837438823402732,junk
1282,0.2585448211757992,0.7057792472793878,0.5500218226833304,-0.0262180376197348,0.09232485780262481,0.13354224699129094,junk
1294,0.21630087961042258,0.6383489547495926,0.5548414358111333,-0.013172589770295158,0.07805603697854535,0.15819002912076577,junk
1305,0.1934359414506568,0.5903577815820584,0.5504804754146815,-0.0038544040110356395,0.07397922387226516,0.18283781125024062,junk
1316,0.16708189373277071,0.5278923268949607,0.5396964970550072,-0.0038544040110356395,0.0790752360804652,0.19990164846918837,junk
1327,0.1473187390473304,0.4761800670712615,0.5257000698515671,-0.018763493083501746,0.08926724379826444,0.21506950722645196,junk
1339,0.14537893382439,0.4559106505953754,0.5123916217451537,-0.0479604507021342,0.09844006911274468,0.2302373970475062,junk
1350,0.15545576161099037,0.46666384545877393,0.5016057636611706,-0.10697558646569888,0.09538245510838432,0.30228473391045596,junk
1361,0.17134565545848104,0.5038984347950989,0.4917390907641983,-0.11318771030520522,0.08824804469634459,0.3534763076948804,junk
1372,0.19266128928306686,0.5572645109104271,0.480496459673173,-0.09517255931298595,0.08009443518238503,0.4008758624283554,junk
1384,0.22676503348081797,0.6160088789413598,0.4699418076791741,-0.05417257454164055,0.07194082566842548,0.4387955248534097,junk
1395,0.32868893999027643,0.6975067768534327,0.47407156198564165,0.0029789199988976577,0.060729602150105554,0.4577553715978322,junk
1406,0.36938357722047316,0.6966764797398075,0.49334625504823537,0.06323647645918905,0.0372879727101467,0.45206740514898913,junk
1417,0.3937978197154187,0.6565511008609426,0.5199631512610624,0.1141758573381573,-0.004499307358772625,0.42741962301951436,junk
1429,0.39535029885456424,0.5866366949258934,0.5458920683768629,0.14337281495678977,-0.05138258293729116,0.38949996059446,junk
1440,0.3794604050070737,0.5084464295970784,0.5683792102832221,0.14399402530515312,-0.09011224900185012,0.3553722861565646,junk
1451,0.3534936833729824,0.44225649928600486,0.5929302894806611,0.07069103117335851,-0.1298610974697281,0.3136606357443513,junk
1462,0.3236537009009416,0.39964700700188593,0.6184005538651105,0.016024378026273704,-0.1237458861596082,0.29849277698708776,junk
1474,0.2953598479601152,0.3888904231706768,0.6397410639430924,-0.03802106477244774,-0.10030425671964936,0.2871168751531924,junk
1485,0.2612561037623641,0.46376966694842336,0.6681925710813232,-0.08026347024051983,-0.06870900106713011,0.27574097331929703,junk
1496,0.2511792759757636,0.5113439970752397,0.6730121842091261,-0.10076347280412894,-0.040171359418971236,0.2643650714854016,junk
1507,0.23955314385398327,0.5444406567146818,0.6730121842091261,-0.09827862123273912,-0.014691315076571872,0.24919721272813805,junk
1519,0.2248284030618431,0.5580914190562415,0.6711756935594134,-0.08026347024051983,0.009769513465306821,0.23971728935592682,junk
1530,0.20777653096296758,0.5601586894207776,0.6741588160375035,-0.05727863646139372,0.030153562298106982,0.23592533243255856,junk
1541,0.1942105936182468,0.5618158946802172,0.6812716928220612,-0.024354396396708333,0.06276800035394524,0.24161329888140157,junk
1552,0.19072148406012643,0.5630562568989389,0.6810423664563858,-0.023111975699981625,0.08519044739058508,0.23971728935592682,junk
1564,0.1934359414506568,0.5762935651675914,0.6695704089996851,-0.02746045831646151,0.10761287772862407,0.23402935397087443,junk
1575,0.20157296401431685,0.6085599276934084,0.653508164780857,-0.02932408936155157,0.12392011345514405,0.22265345213697907,junk
1586,0.22831433781599791,0.687990555240945,0.6294138585904602,-0.024975606745071693,0.13309292207102344,0.21317352876476783,junk
1597,0.23645453518362344,0.7123979014137141,0.6245961251869662,-0.011930158895632046,0.13309292207102344,0.20558961491803135,junk
1608,0.2403277960215732,0.7223275770991089,0.6202370445148232,0.009191043838404002,0.12493931255706389,0.19990164846918837,junk
1620,0.23722918735121337,0.7103306310491779,0.6145001259243184,0.03466072918891994,0.11270888993682412,0.1904217250969771,junk
1631,0.22831433781599791,0.6793046307420827,0.6076165755054362,0.059509204191072515,0.10455528042286456,0.1790458543268724,junk
1642,0.22017731525233786,0.6433104036244793,0.6009623514522295,0.08497889971952485,0.10557447952478441,0.16577394296750225,junk
1653,0.21668820569421748,0.6131113114631985,0.5945374537646982,0.07814556553165514,0.11168969083490429,0.16198198604413402,junk
1665,0.2213392935037228,0.592014986841498,0.5862760654274541,0.06137284541409898,0.11576650394118447,0.15819002912076577,junk
1676,0.23257809954170813,0.5746397488759626,0.5812290056582847,0.037766791108673106,0.11168969083490429,0.1543980411336069,junk
1687,0.24924264555678874,0.5601586894207776,0.5931596158463365,0.012297105758157179,0.09945926821466453,0.15629405065908167,junk
1698,0.24885531947299372,0.5688480028874506,0.5984378817054904,-0.008824096975878874,0.08519044739058508,0.16198198604413402,junk
1710,0.24265492732830862,0.5829122193019177,0.5977499026084637,-0.021248344654891567,0.07499842297418499,0.1733578878780294,junk
1721,0.2360672090998285,0.5862232408529863,0.5936182685776875,-0.021248344654891567,0.07296002477034531,0.18662976817360888,junk
1732,0.23102879520652828,0.5746397488759626,0.5890298615398689,-0.00012713174291911178,0.08417124828866523,0.20558961491803135,junk
1743,0.227152359564613,0.5564376027646126,0.5867347181588052,0.011054674883494067,0.08620964649250491,0.21886149521361084,junk
1755,0.22444107697804816,0.5403027270177988,0.5860467390617787,0.01850921941972712,0.08315204918674539,0.23213337550919033,junk
1766,0.22521572914563812,0.5299595972594968,0.5826049638523376,0.020372860642753586,0.0770368378766255,0.2435092773430857,junk
1777,0.2213392935037228,0.5146550186263081,0.570672473939977,0.014160736803247238,0.07092162656650564,0.24730123426645392,junk
1788,0.2190153370009529,0.5311999594782185,0.5672306987305361,0.0017364993021709509,0.06684481346022543,0.2510931911898222,junk
1800,0.21862483611319244,0.5597452353478704,0.5690671893802488,-0.00944531750217863,0.06174880125202539,0.25678115763866516,junk
1811,0.2190153370009529,0.5804314948644743,0.5759507397991309,-0.013793800118658514,0.052575992636145985,0.26626104994708577,junk
1822,0.21630087961042258,0.5837391274477322,0.5809996792926092,-0.00944531750217863,0.040345570015906225,0.27384499485761293,junk
1833,0.21242444396850726,0.5758801110946843,0.5766387188961573,0.003600140525197416,0.039326370913986386,0.27574097331929703,junk
1845,0.2143642491914477,0.571328727324894,0.5695258421115996,0.007948623141677295,0.043403184020266584,0.27574097331929703,junk
1856,0.2248284030618431,0.5733993866572409,0.5672306987305361,0.011675885231857419,0.04136476911782607,0.2795329613064559,junk
1867,0.24149294907692367,0.575466657021777,0.5688378630145732,0.013539526454883885,0.03117276140002682,0.2871168751531924,junk
1878,0.253119081198704,0.5613990516394993,0.5814583320239601,0.012297105758157179,0.016903940575947376,0.29090886314035125,junk
1890,0.24962997164058376,0.5460944730063106,0.5858174126961033,0.004221350873560769,0.005692717057627452,0.2890128536148765,junk
1901,0.24769334122160888,0.5444406567146818,0.5881125560771668,-0.010687738198905339,-0.0014416933544122669,0.28142893976814,junk
1912,0.24924264555678874,0.5605721434936848,0.5943081273990228,-0.02683924796809815,-0.006537705562612305,0.27763695178098113,junk
1924,0.24653136297022393,0.5862232408529863,0.6048627793930215,-0.033672582155967856,-0.0055185064606924645,0.29090886314035125,junk
1935,0.24149294907692367,0.6048388410372434,0.6124343089089302,-0.0262180376197348,0.0067119161595473,0.2947008200637195,junk
1946,0.2418802751607187,0.6081464736205012,0.6149587786556694,-0.020005913780228455,0.0199615378817069,0.2890128536148765,junk
1957,0.24885531947299372,0.6060792032559651,0.614729452289994,-0.016278641512111926,0.029134346497586304,0.27574097331929703,junk
1969,0.26319590898530454,0.6288327331371052,0.6204663708804986,-0.013793800118658514,0.03524955780770619,0.25678115763866516,junk
1980,0.26668184373945925,0.6350379331985241,0.6186298802307859,-0.00944531750217863,0.039326370913986386,0.23592533243255856,junk
1991,0.27055827938137456,0.6395893169683144,0.6110583507148774,-0.0057180452340621045,0.043403184020266584,0.21886149521361084,junk
2002,0.27714599760985464,0.647034879248455,0.6044041266616706,-0.0013695626175822232,0.04544158222410627,0.2036936053925566,junk
2014,0.2879974775640451,0.6462079711026406,0.6016503305492559,0.003600140525197416,0.044422383122186423,0.1904217250969771,junk
2025,0.2961376749316707,0.6280058249912907,0.5995845135338678,0.013539526454883885,0.04544158222410627,0.16766995249297703,junk
2036,0.2949725218763202,0.5965629816434775,0.5961427383244267,0.008569833490040648,0.04747998042794595,0.1543980411336069,junk
2047,0.28761015148025015,0.5717421813978013,0.5927009631149854,-0.0013695626175822232,0.04849917952986579,0.14491814882518628,junk
2059,0.27288223588414445,0.5680210947416363,0.5874245769801405,-0.011308948547268693,0.05053759443230631,0.14491814882518628,junk
2070,0.2659071915718693,0.565123527263475,0.5832929429493641,-0.014415010467021866,0.05461439083998568,0.15060608421023866,junk
2081,0.26203075592995406,0.5527131271406369,0.5770973716275083,-0.00944531750217863,0.05869120394626587,0.1543980411336069,junk
2093,0.2604814515947741,0.5382354566532627,0.5754920870677799,-0.0007483522692188698,0.060729602150105554,0.15629405065908167,junk
2104,0.25621768986906385,0.5237543971980778,0.5805391468369495,0.00608498191865083,0.060729602150105554,0.15629405065908167,junk
2115,0.24962997164058376,0.5051387970138206,0.584670780867726,0.001115288953807595,0.06276800035394524,0.1525020626719228,junk
2126,0.24381690557969357,0.4902442834857284,0.5814583320239601,-0.008824096975878874,0.06276800035394524,0.1543980411336069,junk
2138,0.24342957949589855,0.4931418509638897,0.5750334343364291,-0.016278641512111926,0.055633589941905516,0.16198198604413402,junk
2149,0.24730601513781386,0.513824721512683,0.5738849227837428,-0.018142282735138394,0.043403184020266584,0.16956593095466113,junk
2160,0.25350640728249907,0.5518862189948225,0.5821463111209866,-0.013172589770295158,0.029134346497586304,0.17146190941634523,junk
2171,0.24575353599866845,0.5502324027031935,0.5874245769801405,-0.0044756143593989925,0.0199615378817069,0.16766995249297703,junk
2183,0.23645453518362344,0.5394758188719844,0.5901764933682463,0.0029789199988976577,0.015884724775426698,0.16198198604413402,junk
2194,0.22676503348081797,0.526651964676239,0.589947167002571,0.00608498191865083,0.017923139677867215,0.16198198604413402,junk
2205,0.22056464133613288,0.5216871268335417,0.59247163674931,0.004842561221924123,0.017923139677867215,0.16766995249297703,junk
2216,0.22017731525233786,0.5245813053438921,0.5991258608025168,-0.0044756143593989925,0.018942338779787057,0.18662976817360888,junk
2228,0.21978998916854284,0.528305780967868,0.6050921057586971,-0.010066527850541985,0.02505755008990694,0.188525746635293,junk
2239,0.21513890135903763,0.5311999594782185,0.6083045546024627,-0.017521072386775038,0.03524955780770619,0.18662976817360888,junk
2250,0.21126246571712232,0.5576779649833342,0.6002724926308942,-0.024975606745071693,0.04544158222410627,0.1904217250969771,junk
2261,0.21552622744283262,0.5837391274477322,0.5949961064960492,-0.0262180376197348,0.05053759443230631,0.20558961491803135,junk
2273,0.22366325000649262,0.6007009113403604,0.59247163674931,-0.020005913780228455,0.049518378631785626,0.22834138752203145,junk
2284,0.23374007779309308,0.6048388410372434,0.5913250049209327,-0.00820288662751552,0.04544158222410627,0.2510931911898222,junk
2295,0.24071829690933375,0.6031850247456144,0.5890298615398689,0.004842561221924123,0.043403184020266584,0.26626104994708577,junk
2306,0.2418802751607187,0.5949091653518486,0.5862760654274541,0.016024378026273704,0.051556793534226146,0.2643650714854016,junk
2318,0.23955314385398327,0.5837391274477322,0.5844414545020503,0.0029789199988976577,0.059710403048185715,0.25298916965150625,junk
2329,0.24071829690933375,0.5779473814592203,0.5830636165836887,-0.021248344654891567,0.06888321166406511,0.23971728935592682,junk
2340,0.24653136297022393,0.5837391274477322,0.5798511677399231,-0.045475599130744386,0.07601762207610484,0.2302373970475062,junk
2352,0.25893214725959424,0.6296596412829196,0.576409392530482,-0.05789984680975708,0.0770368378766255,0.22265345213697907,junk
2363,0.26009412551097916,0.6420700414057577,0.5805391468369495,-0.052930143666977444,0.07397922387226516,0.2112775503030837,junk
2374,0.2585448211757992,0.6259351656589439,0.5830636165836887,-0.03864227512081109,0.06990241076598495,0.1904217250969771,junk
2385,0.2515666020595586,0.5878770571446151,0.5823756374866622,-0.022490765351618272,0.06582561435830558,0.16956593095466113,junk
2397,0.2380038395188034,0.5535400352864513,0.5828342902180133,-0.010687738198905339,0.0637872161544659,0.1543980411336069,junk
2408,0.21940266308474793,0.5299595972594968,0.5849001072334014,0.004221350873560769,0.06684481346022543,0.16766995249297703,junk
2419,0.20467474748864223,0.5084464295970784,0.5855880863304278,0.007948623141677295,0.07499842297418499,0.1809418327885565,junk
2430,0.2004109857629319,0.4985201428794943,0.5839809220463906,0.007948623141677295,0.08315204918674539,0.188525746635293,junk
2441,0.2081638570467625,0.5030715266492845,0.5839809220463906,0.00608498191865083,0.08722884559442476,0.18662976817360888,junk
2453,0.21164979180091734,0.5047253429409133,0.5871933708901562,0.003600140525197416,0.08213283338622472,0.18662976817360888,junk
2464,0.20583672574002715,0.505965705159635,0.58948851427122,0.001115288953807595,0.07092162656650564,0.19231773462245186,junk
2475,0.19459791970204174,0.5080329755241711,0.5915543312866081,-0.0007483522692188698,0.05461439083998568,0.2036936053925566,junk
2486,0.1876228753897666,0.5187895593553804,0.5956840855930756,-0.0038544040110356395,0.0372879727101467,0.21317352876476783,junk
2498,0.1876228753897666,0.5394758188719844,0.5982085553398148,-0.011930158895632046,0.0240383509879871,0.21506950722645196,junk
2509,0.19227396319927192,0.554780397505173,0.5956840855930756,-0.012551369243995402,0.02505755008990694,0.20938157184139958,junk
2520,0.19537257186963167,0.5572645109104271,0.5915543312866081,-0.010687738198905339,0.02607674919182678,0.20748559337971548,junk
2531,0.19614722403722168,0.5560241486917055,0.5888005351741935,-0.0057180452340621045,0.03117276140002682,0.21506950722645196,junk
2543,0.20351276923725728,0.5750532029488697,0.5796218413742474,0.003600140525197416,0.040345570015906225,0.2245494305986632,junk
2554,0.22056464133613288,0.583325673374825,0.5690671893802488,0.015403157499973945,0.052575992636145985,0.23213337550919033,junk
2565,0.24342957949589855,0.5903577815820584,0.5587418637519252,0.02410013291087011,0.05665280574242619,0.23213337550919033,junk
2576,0.26668184373945925,0.592014986841498,0.552775618795745,0.026584974304323532,0.04849917952986579,0.22834138752203145,junk
2588,0.28761015148025015,0.5837391274477322,0.5500218226833304,0.023478912384570356,0.029134346497586304,0.22075747367529494,junk
2599,0.29962360968582546,0.5738128407301482,0.5513977808773833,0.006706192267014183,-0.006537705562612305,0.20748559337971548,junk
2610,0.3011729140210053,0.5680210947416363,0.5553000885424844,-0.0007483522692188698,-0.013672115974652031,0.20558961491803135,junk
2622,0.29729965318305557,0.5626428028260316,0.5582832110205744,-0.0044756143593989925,-0.01774892908093223,0.20748559337971548,junk
2633,0.2841210419221298,0.5481617433708467,0.5734262700523918,-0.0044756143593989925,-0.021825725488611596,0.21317352876476783,junk
2644,0.2856735210612753,0.5365782513938231,0.583751595680715,-0.0044756143593989925,-0.02692173769681163,0.21886149521361084,junk
2655,0.2860608471450702,0.5249947594167994,0.5940788010333472,-0.006960465930788812,-0.032017749905011675,0.22265345213697907,junk
2667,0.2794731289165901,0.5233409431251705,0.6021089832806069,-0.013793800118658514,-0.03609456301129187,0.2245494305986632,junk
2678,0.2678438219908442,0.5361647973209158,0.6094511864308401,-0.023111975699981625,-0.04119055852089108,0.22834138752203145,junk
2689,0.25621768986906385,0.5576779649833342,0.6170245956710577,-0.04112711651426451,-0.0574977775488102,0.23213337550919033,junk
2700,0.24653136297022393,0.5779473814592203,0.622071655440227,-0.045475599130744386,-0.0656514037613706,0.23213337550919033,junk
2712,0.24110562299312868,0.5924284409144053,0.6229889609029291,-0.044233178434017674,-0.07074739927096982,0.23213337550919033,junk
2723,0.2418802751607187,0.6069061114017795,0.6271205949337053,-0.03802106477244774,-0.06972820016904996,0.23213337550919033,junk
2734,0.23877849168639334,0.6309000035016413,0.6496077368400648,-0.02746045831646151,-0.06463220465945076,0.22834138752203145,junk
2745,0.23025414303893835,0.622627533075686,0.6532788384151816,-0.017521072386775038,-0.05444018024305069,0.22265345213697907,junk
2756,0.2190153370009529,0.6069061114017795,0.6530495120495058,-0.012551369243995402,-0.042209757622810914,0.22075747367529494,junk
2768,0.2104878135495324,0.5986336409758244,0.6507543686684423,-0.013172589770295158,-0.029979351701171993,0.2112775503030837,junk
2779,0.2066113779076171,0.5986336409758244,0.645705429174964,-0.018142282735138394,-0.014691315076571872,0.1961096915458201,junk
2790,0.2042874214048472,0.6031850247456144,0.6379045732933798,-0.023111975699981625,0.02301915188606726,0.1733578878780294,junk
2802,0.200023659679137,0.6048388410372434,0.6296431849561358,-0.022490765351618272,0.040345570015906225,0.16577394296750225,junk
2813,0.1918866371154769,0.5957360734976631,0.6239081460899398,-0.023733186048344984,0.052575992636145985,0.15629405065908167,junk
2824,0.19072148406012643,0.5878770571446151,0.622071655440227,-0.028081668664824862,0.06174880125202539,0.14871010574855453,junk
2835,0.1899468318925365,0.6002874572674531,0.6188592065964615,-0.03429379250433121,0.06888321166406511,0.14491814882518628,junk
2847,0.18490841799923627,0.6023547276319893,0.6087632073338136,-0.03677863389778462,0.07601762207610484,0.14302217036350218,junk
2858,0.18219713541267143,0.5949091653518486,0.5998138398995432,-0.033672582155967856,0.08111363428430488,0.14112619190181805,junk
2869,0.18258446149646645,0.5887039652904296,0.5947667801303738,-0.028081668664824862,0.08722884559442476,0.1392301823763433,junk
2880,0.18490841799923627,0.585809786780079,0.58948851427122,-0.015657431163748573,0.09844006911274468,0.14871010574855453,junk
2892,0.18568624497079173,0.5820853111561033,0.5832929429493641,-0.010687738198905339,0.09640165421030417,0.1543980411336069,junk
2903,0.18529574408303126,0.5812584030102889,0.5798511677399231,-0.006960465930788812,0.08926724379826444,0.15819002912076577,junk
2914,0.18529574408303126,0.5870501489988007,0.5800804941055985,-0.005096834885698749,0.08519044739058508,0.15819002912076577,junk
2925,0.18180980932887644,0.5903577815820584,0.5770973716275083,-0.0038544040110356395,0.08824804469634459,0.15629405065908167,junk
2937,0.1794826780221411,0.5928418949873124,0.5734262700523918,-0.0007483522692188698,0.09945926821466453,0.15629405065908167,junk
2948,0.18103515716128651,0.5907712356549656,0.5667720459991851,0.004842561221924123,0.11270888993682412,0.1600860075824499,junk
2959,0.1872355493059717,0.5903577815820584,0.5598884955803027,0.013539526454883885,0.12493931255706389,0.16198198604413402,junk
2970,0.1938232675344518,0.5903577815820584,0.5585125373862498,0.02410013291087011,0.12799690986282342,0.1600860075824499,junk
2981,0.19847435534395702,0.5783608355321276,0.5626422916927175,0.0296910362240767,0.09945926821466453,0.1392301823763433,junk
2993,0.20235079098587233,0.5642966191176606,0.5702138212086262,0.020372860642753586,0.07194082566842548,0.1259583020807638,junk
3004,0.19886168142775204,0.5580914190562415,0.578933862277221,0.00608498191865083,0.044422383122186423,0.11647837870855257,junk
3015,0.1736696119612509,0.5560241486917055,0.5915543312866081,-0.0044756143593989925,0.02505755008990694,0.11837438823402732,junk
3026,0.1601068494204957,0.5452675648604962,0.5961427383244267,-0.006960465930788812,0.017923139677867215,0.12975029006792269,junk
3038,0.1535191311920155,0.5407161810907061,0.6032556151089844,-0.003233193662672286,0.02505755008990694,0.14491814882518628,junk
3049,0.1562304137785804,0.5452675648604962,0.6115170034462282,0.004221350873560769,0.04238396821974591,0.16198198604413402,junk
3060,0.1666945676489758,0.5543669434322658,0.6131222880059566,0.012297105758157179,0.06174880125202539,0.17714984480139762,junk
3072,0.18490841799923627,0.5647100731905678,0.6094511864308401,0.024721343259233468,0.08417124828866523,0.1961096915458201,junk
3083,0.2042874214048472,0.5733993866572409,0.6027969623776334,0.027206194830623285,0.08519044739058508,0.1961096915458201,junk
3094,0.22095196741992779,0.5808449489373816,0.5933889422120119,0.025342553607596817,0.08417124828866523,0.19421371308413599,junk
3105,0.2352925569322385,0.5887039652904296,0.5862760654274541,0.020994070991116942,0.08213283338622472,0.18662976817360888,junk
3116,0.2519571029473191,0.5862232408529863,0.5803098204712741,0.014160736803247238,0.0770368378766255,0.17525386633971352,junk
3128,0.26009412551097916,0.5750532029488697,0.5782458831801947,0.006706192267014183,0.07092162656650564,0.16766995249297703,junk
3139,0.26629451765566425,0.5709152732519868,0.5782458831801947,-0.00012713174291911178,0.0637872161544659,0.16198198604413402,junk
3150,0.2713329315489645,0.5684345488145435,0.5796218413742474,-0.00261198331430893,0.05767200484434602,0.15819002912076577,junk
3161,0.2713329315489645,0.5585048731291486,0.5805391468369495,-0.00261198331430893,0.05665280574242619,0.1525020626719228,junk
3173,0.2690089750461947,0.5469213811521251,0.583751595680715,-0.0007483522692188698,0.05665280574242619,0.15060608421023866,junk
3184,0.2678438219908442,0.5398892729448915,0.5881125560771668,-0.00261198331430893,0.055633589941905516,0.1543980411336069,junk
3195,0.26435788723668935,0.5361647973209158,0.5897178406368954,-0.003233193662672286,0.05461439083998568,0.15819002912076577,junk
3206,0.24885531947299372,0.5328571647376581,0.5904058197339217,-0.00261198331430893,0.053595191738065824,0.16198198604413402,junk
3218,0.2403277960215732,0.5332706188105654,0.5878832297114914,-0.0019907729659455766,0.051556793534226146,0.16577394296750225,junk
3229,0.23374007779309308,0.5316134135511257,0.5855880863304278,-0.0019907729659455766,0.05053759443230631,0.1733578878780294,junk
3240,0.23219077345791322,0.5340975269563798,0.5842121281363749,-0.0044756143593989925,0.05053759443230631,0.18283781125024062,junk
3251,0.23684186126741846,0.5444406567146818,0.5823756374866622,-0.00820288662751552,0.05053759443230631,0.1904217250969771,junk
3263,0.24536620991487346,0.5597452353478704,0.5826049638523376,-0.01503622081538522,0.039326370913986386,0.18662976817360888,junk
3274,0.25350640728249907,0.5750532029488697,0.5871933708901562,-0.015657431163748573,0.03423035870578634,0.16766995249297703,junk
3285,0.25777016900820926,0.5775339273863132,0.5915543312866081,-0.015657431163748573,0.03117276140002682,0.1468141272868704,junk
3296,0.25273175511490903,0.5601586894207776,0.5936182685776875,-0.018142282735138394,0.02505755008990694,0.13733420391465917,junk
3308,0.2318034473741182,0.5303730513324041,0.6037142678403353,-0.02186955500325492,0.016903940575947376,0.1392301823763433,junk
3319,0.23296542562550315,0.532026867624033,0.6110583507148774,-0.024975606745071693,0.014865525673506859,0.15060608421023866,junk
3330,0.2352925569322385,0.5357513432480085,0.6165640632153978,-0.023733186048344984,0.015884724775426698,0.16387796450581815,junk
3341,0.2352925569322385,0.5365782513938231,0.6179419011337595,-0.019384703431865102,0.017923139677867215,0.17525386633971352,junk
3353,0.23257809954170813,0.5336840728834725,0.6165640632153978,-0.01503622081538522,0.02199993608554658,0.18283781125024062,junk
3364,0.22947631606738278,0.5307865054053112,0.6145001259243184,-0.008824096975878874,0.0372879727101467,0.19421371308413599,junk
3375,0.2318034473741182,0.5378186136125447,0.6119756561775792,-0.012551369243995402,0.051556793534226146,0.2036936053925566,junk
3386,0.23684186126741846,0.5539534893593586,0.6076165755054362,-0.017521072386775038,0.06786401256214528,0.2112775503030837,junk
3397,0.24381690557969357,0.571328727324894,0.6002724926308942,-0.020005913780228455,0.07805603697854535,0.2112775503030837,junk
3409,0.24769334122160888,0.5779473814592203,0.5979792289741394,-0.020627124128591807,0.0790752360804652,0.2036936053925566,junk
3420,0.23722918735121337,0.5630562568989389,0.6007330250865539,-0.023111975699981625,0.07397922387226516,0.19421371308413599,junk
3431,0.22327592392269768,0.551059310849008,0.5979792289741394,-0.02746045831646151,0.07296002477034531,0.19231773462245186,junk
3442,0.2128117700523022,0.5539534893593586,0.591095678555257,-0.028702879013188215,0.07601762207610484,0.19800567000750421,junk
3454,0.21087513963332732,0.5647100731905678,0.5842121281363749,-0.024354396396708333,0.08111363428430488,0.20179762693087247,junk
3465,0.21552622744283262,0.5725690895436157,0.579392515008572,-0.0044756143593989925,0.08620964649250491,0.20179762693087247,junk
3476,0.22017731525233786,0.5725690895436157,0.5777872304488436,0.005463771570287476,0.08519044739058508,0.19800567000750421,junk
3487,0.22366325000649262,0.5659504354092895,0.5748041079707534,0.011675885231857419,0.08315204918674539,0.1904217250969771,junk
3499,0.23451472996068304,0.5494021055895684,0.5688378630145732,0.011054674883494067,0.0790752360804652,0.18473378971192472,junk
3510,0.23296542562550315,0.5494021055895684,0.5686085366488978,0.0029789199988976577,0.07499842297418499,0.1809418327885565,junk
3521,0.2248284030618431,0.5527131271406369,0.5660840669021586,-0.007581676279152166,0.07194082566842548,0.1790458543268724,junk
3532,0.21630087961042258,0.5543669434322658,0.5626422916927175,-0.015657431163748573,0.07092162656650564,0.17714984480139762,junk
3543,0.21203711788471225,0.5605721434936848,0.5596591692146273,-0.018763493083501746,0.06888321166406511,0.17525386633971352,junk
3555,0.21242444396850726,0.5680210947416363,0.5598884955803027,-0.00820288662751552,0.05461439083998568,0.18283781125024062,junk
3566,0.21591355352662756,0.567607640668729,0.5649374350737812,0.0004940786054442416,0.04849917952986579,0.18662976817360888,junk
3577,0.21823751002939745,0.5531265812135442,0.5695258421115996,0.005463771570287476,0.043403184020266584,0.1904217250969771,junk
3588,0.2170755317780125,0.5336840728834725,0.5727382909553653,0.004842561221924123,0.03830717181206654,0.19421371308413599,junk
3599,0.21668820569421748,0.5254082134897066,0.578933862277221,-0.00261198331430893,0.03524955780770619,0.19990164846918837,junk
3611,0.2213392935037228,0.5336840728834725,0.5812290056582847,-0.013172589770295158,0.0372879727101467,0.20179762693087247,junk
3622,0.22908898998358787,0.5498189486302864,0.5816876583896358,-0.023111975699981625,0.04238396821974591,0.20179762693087247,junk
3633,0.23645453518362344,0.571328727324894,0.579392515008572,-0.02683924796809815,0.04544158222410627,0.20179762693087247,junk
3644,0.2418802751607187,0.589530873436244,0.5777872304488436,-0.022490765351618272,0.044422383122186423,0.20748559337971548,junk
3656,0.24691868905401884,0.5973932787571027,0.5784752095458701,0.0023577096505343043,0.018942338779787057,0.21317352876476783,junk
3667,0.2504046238081737,0.5986336409758244,0.5782458831801947,0.014160736803247238,0.0046735179557076114,0.2112775503030837,junk
3678,0.24962997164058376,0.593668803133127,0.5766387188961573,0.020372860642753586,-0.007556904664532145,0.2036936053925566,junk
3689,0.24265492732830862,0.5829122193019177,0.5773266979931839,0.020372860642753586,-0.013672115974652031,0.1961096915458201,junk
3701,0.2248284030618431,0.5700883651061723,0.5890298615398689,0.014781947151610592,-0.013672115974652031,0.188525746635293,junk
3712,0.22288859783890266,0.5717421813978013,0.5961427383244267,0.006706192267014183,-0.007556904664532145,0.18473378971192472,junk
3723,0.2248284030618431,0.5791911326457527,0.602567636011958,-0.0013695626175822232,-0.0004224942524924265,0.1790458543268724,junk
3734,0.22908898998358787,0.5870501489988007,0.6110583507148774,-0.0057180452340621045,0.0046735179557076114,0.17146190941634523,junk
3746,0.2333527517092981,0.5849794896664539,0.6174832484024085,-0.006339255582425458,0.00773111526146714,0.16198198604413402,junk
3757,0.2352925569322385,0.5733993866572409,0.619547185693488,-0.003233193662672286,0.014865525673506859,0.13733420391465917,junk
3768,0.2341274038768881,0.5613990516394993,0.6179419011337595,-0.0013695626175822232,0.02301915188606726,0.1316462685296068,junk
3780,0.22947631606738278,0.5489886515166612,0.6138121468272919,0.0017364993021709509,0.03423035870578634,0.13733420391465917,junk
3791,0.22599038131322804,0.5274788728220534,0.6057800848557235,0.004842561221924123,0.04136476911782607,0.14871010574855453,junk
3802,0.2314161212903232,0.5221005809064488,0.6055507584900481,0.005463771570287476,0.043403184020266584,0.15629405065908167,junk
3813,0.23684186126741846,0.52044676461482,0.6046334530273461,0.004221350873560769,0.04238396821974591,0.1600860075824499,junk
3824,0.23839116560259832,0.5221005809064488,0.6048627793930215,0.0017364993021709509,0.03524955780770619,0.1600860075824499,junk
3836,0.23374007779309308,0.5237543971980778,0.6062387375870745,-0.00012713174291911178,0.027095948293746622,0.1600860075824499,junk
3847,0.22599038131322804,0.5208602186877272,0.6071579227740852,-0.0019907729659455766,0.0240383509879871,0.16766995249297703,junk
3858,0.21591355352662756,0.5134112674397757,0.6080752282367873,-0.00261198331430893,0.027095948293746622,0.1790458543268724,junk
3869,0.2042874214048472,0.5113439970752397,0.6101391655278665,-0.003233193662672286,0.03219196050194666,0.188525746635293,junk
3881,0.20118563793052185,0.5196164675011948,0.6124343089089302,-0.003233193662672286,0.04238396821974591,0.1961096915458201,junk
3892,0.2213392935037228,0.5382354566532627,0.6037142678403353,-0.0013695626175822232,0.05767200484434602,0.20179762693087247,junk
3903,0.2248284030618431,0.5274788728220534,0.5982085553398148,0.0023577096505343043,0.06990241076598495,0.2036936053925566,junk
3915,0.21823751002939745,0.5154819267721226,0.5991258608025168,0.0023577096505343043,0.06990241076598495,0.20558961491803135,junk
3926,0.20777653096296758,0.5129978133668686,0.6032556151089844,-0.00261198331430893,0.06582561435830558,0.20938157184139958,junk
3937,0.2042874214048472,0.5216871268335417,0.6037142678403353,-0.00944531750217863,0.0637872161544659,0.2112775503030837,junk
3948,0.20893850921435245,0.5394758188719844,0.5998138398995432,-0.013793800118658514,0.0637872161544659,0.21506950722645196,junk
3960,0.21397692310765268,0.5522996730677296,0.5961427383244267,-0.00944531750217863,0.059710403048185715,0.22075747367529494,junk
3971,0.21397692310765268,0.5514727649219152,0.5947667801303738,-0.003233193662672286,0.055633589941905516,0.22834138752203145,junk
3982,0.21552622744283262,0.5440272026417745,0.5897178406368954,0.001115288953807595,0.05767200484434602,0.23402935397087443,junk
3993,0.22288859783890266,0.5419565433094277,0.5855880863304278,0.0017364993021709509,0.06276800035394524,0.23971728935592682,junk
4005,0.2314161212903232,0.5456810189334034,0.5858174126961033,0.001115288953807595,0.06990241076598495,0.24161329888140157,junk
4016,0.23839116560259832,0.5527131271406369,0.5881125560771668,-0.00012713174291911178,0.07601762207610484,0.23592533243255856,junk
4027,0.24226760124451363,0.5460944730063106,0.5888005351741935,-0.003233193662672286,0.07805603697854535,0.22644540906034732,junk
4038,0.24149294907692367,0.5394758188719844,0.5890298615398689,-0.017521072386775038,0.06480641525638575,0.20748559337971548,junk
4050,0.24265492732830862,0.5560241486917055,0.5913250049209327,-0.021248344654891567,0.051556793534226146,0.20748559337971548,junk
4061,0.24730601513781386,0.5721556354707085,0.5940788010333472,-0.016899851860475282,0.03830717181206654,0.21317352876476783,junk
4072,0.2500172977243787,0.5700883651061723,0.5952254328617246,-0.006960465930788812,0.030153562298106982,0.21886149521361084,junk
4083,0.23722918735121337,0.5498189486302864,0.5963720646901021,0.0023577096505343043,0.030153562298106982,0.2245494305986632,junk
4095,0.23102879520652828,0.5394758188719844,0.5977499026084637,0.008569833490040648,0.036268756909626026,0.2245494305986632,junk
4106,0.23064146912273326,0.5274788728220534,0.6037142678403353,0.009191043838404002,0.04646078132602611,0.22834138752203145,junk
4117,0.23645453518362344,0.5270654187491463,0.6112876770805528,0.004221350873560769,0.06174880125202539,0.23971728935592682,junk
4128,0.2442042316634885,0.5444406567146818,0.6133516143716322,-0.0057180452340621045,0.08009443518238503,0.2510931911898222,junk
4139,0.2500172977243787,0.5647100731905678,0.6094511864308401,-0.020627124128591807,0.10557447952478441,0.24161329888140157,junk
4151,0.2515666020595586,0.5742262948030553,0.6046334530273461,-0.020627124128591807,0.10353608132094472,0.22644540906034732,junk
4162,0.2500172977243787,0.5717421813978013,0.6014210041835805,-0.016899851860475282,0.09538245510838432,0.21317352876476783,junk
4173,0.2418802751607187,0.5303730513324041,0.5897178406368954,-0.013793800118658514,0.08620964649250491,0.2036936053925566,junk
4184,0.23877849168639334,0.5187895593553804,0.583751595680715,-0.012551369243995402,0.0770368378766255,0.19990164846918837,junk
4195,0.23374007779309308,0.5171357430637514,0.5809996792926092,-0.013793800118658514,0.06888321166406511,0.20179762693087247,junk
4207,0.22792701173220292,0.5192030134282876,0.579392515008572,-0.015657431163748573,0.06582561435830558,0.20748559337971548,junk
4218,0.227152359564613,0.5258216675626138,0.5791631886428966,-0.015657431163748573,0.06888321166406511,0.21506950722645196,junk
4229,0.23064146912273326,0.5361647973209158,0.5803098204712741,-0.013172589770295158,0.07601762207610484,0.22265345213697907,junk
4240,0.2341274038768881,0.5419565433094277,0.5809996792926092,-0.0038544040110356395,0.09232485780262481,0.2245494305986632,junk
4251,0.2376165134350084,0.5398892729448915,0.5782458831801947,-0.0019907729659455766,0.09945926821466453,0.22644540906034732,junk
4263,0.24536620991487346,0.5349244351021942,0.5725089645896897,-0.003233193662672286,0.10047846731658436,0.22834138752203145,junk
4274,0.2678438219908442,0.5349244351021942,0.5647081087081056,-0.007581676279152166,0.09436325600646447,0.23402935397087443,junk
4285,0.27288223588414445,0.5394758188719844,0.5670013723648605,-0.013793800118658514,0.08009443518238503,0.23971728935592682,junk
4296,0.27404738893949493,0.5494021055895684,0.5741142491494182,-0.018142282735138394,0.060729602150105554,0.24161329888140157,junk
4307,0.2732695619679394,0.5585048731291486,0.5809996792926092,-0.020005913780228455,0.04238396821974591,0.23971728935592682,junk
4319,0.26629451765566425,0.5634697109718462,0.5885712088085179,-0.022490765351618272,0.028115147395666465,0.23592533243255856,junk
4330,0.2546683855338839,0.571328727324894,0.5952254328617246,-0.025596827271371445,0.017923139677867215,0.23592533243255856,junk
4341,0.24614086208246339,0.5829122193019177,0.5995845135338678,-0.022490765351618272,0.0199615378817069,0.24161329888140157,junk
4352,0.24497888383107844,0.5944957112789414,0.6023383096462823,-0.017521072386775038,0.03219196050194666,0.23592533243255856,junk
4363,0.24653136297022393,0.5965629816434775,0.602567636011958,-0.013172589770295158,0.043403184020266584,0.22644540906034732,junk
4375,0.25350640728249907,0.5899443275091512,0.5968307174214531,-0.011308948547268693,0.05053759443230631,0.2169655167519267,junk
4386,0.2608687776785691,0.5916015327685908,0.5904058197339217,-0.012551369243995402,0.053595191738065824,0.2112775503030837,junk
4397,0.2686216489623997,0.5899443275091512,0.5832929429493641,-0.015657431163748573,0.05461439083998568,0.20748559337971548,junk
4408,0.2713329315489645,0.583325673374825,0.5784752095458701,-0.018763493083501746,0.05461439083998568,0.20558961491803135,junk
4420,0.2686216489623997,0.5742262948030553,0.5761800661648065,-0.020005913780228455,0.053595191738065824,0.2036936053925566,junk
4431,0.2612561037623641,0.5622293487531245,0.5775560243588593,-0.016899851860475282,0.05053759443230631,0.20748559337971548,junk
4442,0.2519571029473191,0.5506458567761008,0.5823756374866622,-0.013793800118658514,0.04646078132602611,0.20748559337971548,junk
4453,0.24381690557969357,0.5386489107261699,0.5890298615398689,-0.010066527850541985,0.044422383122186423,0.20748559337971548,junk
4464,0.23374007779309308,0.528305780967868,0.5959134119587512,-0.007581676279152166,0.043403184020266584,0.20558961491803135,junk
4476,0.2275396856484079,0.52044676461482,0.5975205762427883,-0.006339255582425458,0.04747998042794595,0.2036936053925566,junk
4487,0.22676503348081797,0.5237543971980778,0.5936182685776875,-0.0057180452340621045,0.05461439083998568,0.20558961491803135,junk
4498,0.227152359564613,0.5324437106647509,0.5908663521895816,-0.0038544040110356395,0.0637872161544659,0.21506950722645196,junk
4509,0.2333527517092981,0.5469213811521251,0.5892591879055443,-0.0007483522692188698,0.07092162656650564,0.22644540906034732,junk
4521,0.2418802751607187,0.5630562568989389,0.5876539033458161,0.005463771570287476,0.07601762207610484,0.23782131089424266,junk
4532,0.24730601513781386,0.5692614569603579,0.584670780867726,0.020372860642753586,0.08315204918674539,0.2302373970475062,junk
4543,0.2519571029473191,0.565123527263475,0.5770973716275083,0.01975165029439023,0.08519044739058508,0.2245494305986632,junk
4554,0.25970679942718417,0.565123527263475,0.5688378630145732,0.014160736803247238,0.08111363428430488,0.22265345213697907,junk
4565,0.27055827938137456,0.5721556354707085,0.5649374350737812,0.009191043838404002,0.07194082566842548,0.22075747367529494,junk
4577,0.27288223588414445,0.5758801110946843,0.5709018003056526,0.007327412793313941,0.06276800035394524,0.21506950722645196,junk
4588,0.2628085829015095,0.5671907976280112,0.5748041079707534,0.005463771570287476,0.05767200484434602,0.2036936053925566,junk
4599,0.254281059450089,0.5572645109104271,0.5780165568145192,0.0023577096505343043,0.05665280574242619,0.19231773462245186,junk
4610,0.2504046238081737,0.5415430892365205,0.5798511677399231,-0.00012713174291911178,0.05869120394626587,0.18662976817360888,junk
4622,0.24885531947299372,0.526651964676239,0.5812290056582847,0.001115288953807595,0.0637872161544659,0.19231773462245186,junk
4633,0.24730601513781386,0.5216871268335417,0.584670780867726,0.0023577096505343043,0.08315204918674539,0.2036936053925566,junk
4644,0.24304225341210356,0.5316134135511257,0.5881125560771668,0.004221350873560769,0.09232485780262481,0.1961096915458201,junk
4655,0.24110562299312868,0.5427834514552422,0.5869640445244808,0.011675885231857419,0.09436325600646447,0.18662976817360888,junk
4667,0.24149294907692367,0.5129978133668686,0.5780165568145192,0.01975165029439023,0.08824804469634459,0.18662976817360888,junk
4678,0.24304225341210356,0.49686632658786545,0.5704431475743016,0.020994070991116942,0.0790752360804652,0.19990164846918837,junk
4689,0.2442042316634885,0.4906577375586357,0.5637889235210949,0.011675885231857419,0.06786401256214528,0.2112775503030837,junk
4700,0.2445915577472835,0.513824721512683,0.5667720459991851,-0.003233193662672286,0.05665280574242619,0.21886149521361084,junk
4712,0.2507919498919686,0.5568510568375199,0.5736555964180672,-0.013793800118658514,0.052575992636145985,0.22265345213697907,junk
4723,0.25893214725959424,0.5870501489988007,0.5734262700523918,-0.00012713174291911178,0.055633589941905516,0.21506950722645196,junk
4734,0.2651325394042794,0.592014986841498,0.5692965157459242,0.014781947151610592,0.04646078132602611,0.20748559337971548,junk
4745,0.2697836272137846,0.5808449489373816,0.5690671893802488,0.022857702036207,0.03423035870578634,0.19800567000750421,junk
4756,0.2678438219908442,0.5642966191176606,0.5734262700523918,0.020994070991116942,0.02505755008990694,0.19421371308413599,junk
4768,0.2628085829015095,0.5498189486302864,0.5874245769801405,0.013539526454883885,0.020980736983626742,0.19421371308413599,junk
4779,0.2651325394042794,0.5576779649833342,0.5913250049209327,0.0029789199988976577,0.0199615378817069,0.1961096915458201,junk
4790,0.27055827938137456,0.5709152732519868,0.5933889422120119,-0.006339255582425458,0.018942338779787057,0.19800567000750421,junk
4801,0.2752093671908798,0.575466657021777,0.5970600437871286,-0.013793800118658514,0.017923139677867215,0.1961096915458201,junk
4813,0.2763713454422647,0.5688480028874506,0.6023383096462823,-0.019384703431865102,0.016903940575947376,0.18662976817360888,junk
4824,0.27598401935846983,0.5642966191176606,0.6057800848557235,-0.028702879013188215,0.02505755008990694,0.1790458543268724,junk
4835,0.27443471502328987,0.5688480028874506,0.6087632073338136,-0.02932408936155157,0.029134346497586304,0.1809418327885565,junk
4846,0.27055827938137456,0.5738128407301482,0.6119756561775792,-0.0262180376197348,0.03524955780770619,0.18473378971192472,junk
4858,0.26668184373945925,0.575466657021777,0.6131222880059566,-0.021248344654891567,0.04238396821974591,0.18662976817360888,junk
4869,0.2659071915718693,0.5738128407301482,0.6167952693053821,-0.01503622081538522,0.049518378631785626,0.18662976817360888,junk
4880,0.25970679942718417,0.5812584030102889,0.6124343089089302,-0.006960465930788812,0.05767200484434602,0.18283781125024062,junk
4891,0.2550557116176789,0.5824987652290105,0.5995845135338678,0.006706192267014183,0.06888321166406511,0.1733578878780294,junk
4903,0.25583036378526886,0.5593317812749632,0.5862760654274541,0.024721343259233468,0.0790752360804652,0.16387796450581815,junk
4914,0.25777016900820926,0.52044676461482,0.5787045359115457,0.03652436023401,0.08519044739058508,0.16198198604413402,junk
4925,0.261643429846159,0.4947956672555186,0.5743454552394025,0.023478912384570356,0.0902864429001843,0.17146190941634523,junk
4936,0.27055827938137456,0.49644948354714746,0.5695258421115996,0.011675885231857419,0.08315204918674539,0.1790458543268724,junk
4948,0.2798604550003851,0.5084464295970784,0.5665427196335097,0.005463771570287476,0.07092162656650564,0.18662976817360888,junk
4959,0.27443471502328987,0.5187895593553804,0.5653960878051322,0.0023577096505343043,0.05869120394626587,0.19421371308413599,junk
4970,0.2713329315489645,0.5295461431865895,0.5667720459991851,0.0017364993021709509,0.05053759443230631,0.19421371308413599,junk
4981,0.27055827938137456,0.534510981029287,0.571591659126988,0.004842561221924123,0.04136476911782607,0.1904217250969771,junk
4993,0.2690089750461947,0.5278923268949607,0.5759507397991309,0.00981225418676736,0.03423035870578634,0.1904217250969771,junk
5004,0.2674564959070492,0.5142381755855902,0.5770973716275083,0.013539526454883885,0.03117276140002682,0.19231773462245186,junk
5015,0.26668184373945925,0.5034849807221917,0.5791631886428966,0.011054674883494067,0.0372879727101467,0.19421371308413599,junk
5026,0.2686216489623997,0.5030715266492845,0.5839809220463906,0.004842561221924123,0.040345570015906225,0.19421371308413599,junk
5038,0.2732695619679394,0.5088632726377963,0.5901764933682463,-0.00261198331430893,0.039326370913986386,0.19800567000750421,junk
5049,0.2841210419221298,0.528305780967868,0.6023383096462823,-0.006960465930788812,0.0372879727101467,0.1961096915458201,junk
5060,0.2841210419221298,0.532026867624033,0.6069267166841009,-0.00820288662751552,0.0372879727101467,0.188525746635293,junk
5071,0.27908262802882955,0.5258216675626138,0.6094511864308401,-0.006339255582425458,0.040345570015906225,0.18662976817360888,junk
5083,0.27482204110708486,0.5183761052824731,0.6103703716178508,-0.0038544040110356395,0.043403184020266584,0.188525746635293,junk
5094,0.27443471502328987,0.5084464295970784,0.6101391655278665,-0.00012713174291911178,0.049518378631785626,0.1904217250969771,junk
5105,0.27598401935846983,0.5010008673169377,0.6083045546024627,0.0017364993021709509,0.05767200484434602,0.19421371308413599,junk
5116,0.280635107167975,0.505965705159635,0.604174800295995,-0.006960465930788812,0.07499842297418499,0.1961096915458201,junk
5128,0.28644817322886523,0.5179626512095659,0.5977499026084637,-0.011930158895632046,0.07601762207610484,0.19990164846918837,junk
5139,0.28954678189922506,0.5303730513324041,0.5917836576522837,-0.012551369243995402,0.07194082566842548,0.20179762693087247,junk
5150,0.2949725218763202,0.5498189486302864,0.5832929429493641,-0.011308948547268693,0.06582561435830558,0.20179762693087247,junk
5161,0.2907119349545754,0.5502324027031935,0.5826049638523376,-0.011308948547268693,0.059710403048185715,0.19800567000750421,junk
5173,0.2856735210612753,0.5477482892979395,0.5826049638523376,-0.016278641512111926,0.055633589941905516,0.18662976817360888,junk
5184,0.2841210419221298,0.544854110787589,0.5851294335990768,-0.024354396396708333,0.05461439083998568,0.17146190941634523,junk
5195,0.28373371583833484,0.5502324027031935,0.5888005351741935,-0.033672582155967856,0.05665280574242619,0.16387796450581815,junk
5206,0.2825717375869499,0.5626428028260316,0.58948851427122,-0.033672582155967856,0.06480641525638575,0.14491814882518628,junk
5218,0.281409759335565,0.5647100731905678,0.5849001072334014,-0.024975606745071693,0.06786401256214528,0.13354224699129094,junk
5229,0.27908262802882955,0.5489886515166612,0.5796218413742474,-0.015657431163748573,0.06684481346022543,0.12406232361907969,junk
5240,0.2783079758612396,0.5299595972594968,0.5782458831801947,-0.010066527850541985,0.06582561435830558,0.12027036669571144,junk
5251,0.27288223588414445,0.5076195214512639,0.5798511677399231,-0.006960465930788812,0.06786401256214528,0.12406232361907969,junk
5263,0.26823432287860466,0.5018277754627521,0.576409392530482,-0.006339255582425458,0.07397922387226516,0.13543822545297504,junk
5274,0.2659071915718693,0.49396875910970417,0.5704431475743016,-0.006339255582425458,0.08009443518238503,0.15060608421023866,junk
5285,0.2678438219908442,0.4919014887451681,0.565854740536483,-0.006960465930788812,0.08417124828866523,0.16387796450581815,junk
5297,0.2713329315489645,0.49355530503679695,0.5617249862300154,-0.010066527850541985,0.08926724379826444,0.1790458543268724,junk
5308,0.27598401935846983,0.49644948354714746,0.5578226785649146,-0.011308948547268693,0.08722884559442476,0.18662976817360888,junk
5319,0.28024778108418,0.5022412295356593,0.5566760467365371,-0.011308948547268693,0.0790752360804652,0.19231773462245186,junk
5330,0.28218441150315493,0.5067926133054494,0.5589711901176009,-0.010687738198905339,0.06582561435830558,0.19990164846918837,junk
5342,0.2860608471450702,0.5212736727606344,0.567689351461887,-0.00820288662751552,0.051556793534226146,0.20938157184139958,junk
5353,0.28915945581543,0.5287192350407751,0.5697551684772751,-0.003233193662672286,0.040345570015906225,0.21317352876476783,junk
5364,0.2903246088707805,0.5258216675626138,0.5695258421115996,-0.00012713174291911178,0.03423035870578634,0.21317352876476783,junk
5375,0.2856735210612753,0.5121709052210541,0.5688378630145732,0.0004940786054442416,0.03219196050194666,0.2169655167519267,junk
5387,0.27908262802882955,0.5026546836085666,0.5704431475743016,-0.003233193662672286,0.0332111596038665,0.22075747367529494,junk
5398,0.27598401935846983,0.5047253429409133,0.5720503118583389,-0.015657431163748573,0.03830717181206654,0.23402935397087443,junk
5409,0.2783079758612396,0.5212736727606344,0.5718209854926634,-0.018142282735138394,0.039326370913986386,0.23782131089424266,junk
5420,0.2845083680059248,0.5415430892365205,0.5722796382240143,-0.014415010467021866,0.0372879727101467,0.23971728935592682,junk
5432,0.28683549931266017,0.5444406567146818,0.584670780867726,-0.006339255582425458,0.03219196050194666,0.24161329888140157,junk
5443,0.28179708541936,0.534510981029287,0.591095678555257,-0.0007483522692188698,0.02607674919182678,0.2435092773430857,junk
5454,0.27598401935846983,0.5254082134897066,0.5949961064960492,-0.00012713174291911178,0.02199993608554658,0.2435092773430857,junk
5465,0.2721075837165545,0.5287192350407751,0.5963720646901021,-0.0057180452340621045,0.0199615378817069,0.23971728935592682,junk
5477,0.27055827938137456,0.5473348352250322,0.5970600437871286,-0.012551369243995402,0.0199615378817069,0.23402935397087443,junk
5488,0.27055827938137456,0.5680210947416363,0.5977499026084637,-0.015657431163748573,0.02505755008990694,0.23213337550919033,junk
5499,0.2713329315489645,0.5725690895436157,0.5966013910557777,-0.0013695626175822232,0.040345570015906225,0.22644540906034732,junk
5510,0.2713329315489645,0.5601586894207776,0.5949961064960492,0.007327412793313941,0.044422383122186423,0.21886149521361084,junk
5522,0.2697836272137846,0.5407161810907061,0.5938475949433629,0.00981225418676736,0.04747998042794595,0.2112775503030837,junk
5533,0.2647452133204844,0.5270654187491463,0.5869640445244808,0.00608498191865083,0.04849917952986579,0.20938157184139958,junk
5544,0.2659071915718693,0.5349244351021942,0.5865053917931298,-0.00012713174291911178,0.04849917952986579,0.21506950722645196,junk
5555,0.2678438219908442,0.5477482892979395,0.584670780867726,-0.0044756143593989925,0.051556793534226146,0.22265345213697907,junk
5567,0.2732695619679394,0.5597452353478704,0.5823756374866622,-0.003233193662672286,0.053595191738065824,0.2245494305986632,junk
5578,0.27908262802882955,0.5593317812749632,0.5798511677399231,0.0023577096505343043,0.05461439083998568,0.22075747367529494,junk
5589,0.2841210419221298,0.5531265812135442,0.5770973716275083,0.00608498191865083,0.05767200484434602,0.20179762693087247,junk
5600,0.29109926103837047,0.5543669434322658,0.5731969436867164,0.005463771570287476,0.05665280574242619,0.1904217250969771,junk
5612,0.29807430535064555,0.5589183272020559,0.5695258421115996,0.006706192267014183,0.05053759443230631,0.18473378971192472,junk
5623,0.29768697926685056,0.5551938515780803,0.567689351461887,0.008569833490040648,0.043403184020266584,0.1790458543268724,junk
5634,0.2841210419221298,0.5378186136125447,0.5722796382240143,0.007327412793313941,0.036268756909626026,0.17146190941634523,junk
5645,0.2721075837165545,0.5245813053438921,0.5770973716275083,0.003600140525197416,0.030153562298106982,0.1600860075824499,junk
5657,0.26319590898530454,0.5088632726377963,0.5800804941055985,-0.0019907729659455766,0.028115147395666465,0.14871010574855453,junk
5668,0.261643429846159,0.4976932347336799,0.5814583320239601,-0.00944531750217863,0.03219196050194666,0.14112619190181805,junk
5679,0.2686216489623997,0.49520912132842576,0.5839809220463906,-0.015657431163748573,0.040345570015906225,0.14112619190181805,junk
5690,0.28102243325176995,0.499760505098216,0.5851294335990768,-0.016899851860475282,0.052575992636145985,0.14302217036350218,junk
5702,0.2903246088707805,0.505965705159635,0.5835222693150396,-0.013793800118658514,0.049518378631785626,0.1468141272868704,junk
5713,0.29381054362493536,0.5076195214512639,0.5819169847553112,-0.00944531750217863,0.043403184020266584,0.1525020626719228,junk
5724,0.29807430535064555,0.5125843592939614,0.5800804941055985,-0.0044756143593989925,0.03830717181206654,0.15819002912076577,junk
5735,0.3011729140210053,0.5121709052210541,0.5741142491494182,-0.00012713174291911178,0.03524955780770619,0.16198198604413402,junk
5747,0.3011729140210053,0.5109305430023324,0.5692965157459242,0.0029789199988976577,0.0332111596038665,0.16577394296750225,junk
5758,0.3015634149087659,0.5088632726377963,0.5695258421115996,0.004842561221924123,0.03524955780770619,0.16956593095466113,junk
5769,0.3046620235791257,0.49810668880658715,0.5709018003056526,0.004221350873560769,0.04136476911782607,0.1733578878780294,junk
5780,0.3050493496629207,0.4881770131211923,0.5727382909553653,-0.010066527850541985,0.044422383122186423,0.17146190941634523,junk
5792,0.3011729140210053,0.48983082941282124,0.5754920870677799,-0.019384703431865102,0.039326370913986386,0.16766995249297703,junk
5803,0.2957471740439102,0.49686632658786545,0.5766387188961573,-0.024354396396708333,0.03117276140002682,0.16766995249297703,junk
5814,0.28722282539645516,0.49934705102530874,0.576409392530482,-0.023733186048344984,0.02199993608554658,0.17525386633971352,junk
5826,0.28373371583833484,0.5005874132440304,0.578933862277221,-0.018763493083501746,0.014865525673506859,0.18662976817360888,junk
5837,0.27598401935846983,0.4960360294742403,0.5839809220463906,-0.013793800118658514,0.011807928367747338,0.19800567000750421,junk
5848,0.26319590898530454,0.4881770131211923,0.5865053917931298,-0.010687738198905339,0.015884724775426698,0.21317352876476783,junk
5859,0.25389373336629395,0.48321217527849497,0.5828342902180133,-0.00944531750217863,0.028115147395666465,0.22834138752203145,junk
5871,0.2511792759757636,0.48197181305977327,0.5782458831801947,-0.014415010467021866,0.05461439083998568,0.2435092773430857,junk
5882,0.25583036378526886,0.4906577375586357,0.5741142491494182,-0.016899851860475282,0.05869120394626587,0.24730123426645392,junk
5893,0.26203075592995406,0.5084464295970784,0.5690671893802488,-0.016278641512111926,0.055633589941905516,0.24919721272813805,junk
5905,0.26823432287860466,0.5287192350407751,0.5672306987305361,-0.010066527850541985,0.04646078132602611,0.25298916965150625,junk
5916,0.280635107167975,0.5374051595396375,0.565854740536483,-0.0007483522692188698,0.03524955780770619,0.2510931911898222,junk
5927,0.28102243325176995,0.5299595972594968,0.5626422916927175,0.005463771570287476,0.02505755008990694,0.24919721272813805,junk
5938,0.28024778108418,0.5295461431865895,0.5617249862300154,0.007948623141677295,0.017923139677867215,0.2454052558047698,junk
5950,0.2794731289165901,0.5353378891751014,0.5649374350737812,0.006706192267014183,0.014865525673506859,0.24161329888140157,junk
5961,0.27598401935846983,0.5365782513938231,0.5711330063956369,0.0029789199988976577,0.014865525673506859,0.23971728935592682,junk
5972,0.2701709532975796,0.5369917054667303,0.578933862277221,-0.00261198331430893,0.018942338779787057,0.2454052558047698,junk
5983,0.2651325394042794,0.5419565433094277,0.5851294335990768,0.001115288953807595,0.02199993608554658,0.24730123426645392,junk
5994,0.26397056115289447,0.5407161810907061,0.5885712088085179,0.007327412793313941,0.02199993608554658,0.2435092773430857,junk
6006,0.2678438219908442,0.5183761052824731,0.5931596158463365,0.010433464535130712,0.014865525673506859,0.23402935397087443,junk
6017,0.2701709532975796,0.516308834917937,0.5943081273990228,0.007327412793313941,0.0067119161595473,0.22644540906034732,junk
6028,0.27055827938137456,0.528305780967868,0.5940788010333472,0.0017364993021709509,-0.0014416933544122669,0.22265345213697907,junk
6039,0.2697836272137846,0.5431969055281494,0.5949961064960492,-0.0019907729659455766,-0.0034800915582519475,0.2245494305986632,junk
6050,0.2674564959070492,0.5514727649219152,0.5956840855930756,-0.00261198331430893,-0.0014416933544122669,0.22834138752203145,junk
6062,0.26629451765566425,0.5518862189948225,0.5954547592274002,-0.0019907729659455766,0.0067119161595473,0.2302373970475062,junk
6073,0.26668184373945925,0.5477482892979395,0.5961427383244267,-0.00012713174291911178,0.0199615378817069,0.21886149521361084,junk
6084,0.2674564959070492,0.5398892729448915,0.5991258608025168,-0.0019907729659455766,0.017923139677867215,0.20748559337971548,junk
6095,0.26939630112998963,0.5311999594782185,0.6037142678403353,-0.006960465930788812,0.012827127469667179,0.1961096915458201,junk
6107,0.26435788723668935,0.5291326891136824,0.6037142678403353,-0.011930158895632046,0.010788729265827498,0.1904217250969771,junk
6118,0.25777016900820926,0.5287192350407751,0.6000431662652186,-0.01503622081538522,0.010788729265827498,0.188525746635293,junk
6129,0.253119081198704,0.5225140349793561,0.5963720646901021,-0.014415010467021866,0.011807928367747338,0.1904217250969771,junk
6140,0.24924264555678874,0.5129978133668686,0.5959134119587512,-0.011930158895632046,0.013846326571587018,0.19800567000750421,junk
6152,0.24575353599866845,0.5018277754627521,0.5986672080711658,-0.007581676279152166,0.020980736983626742,0.20938157184139958,junk
6163,0.24614086208246339,0.49396875910970417,0.6007330250865539,-0.005096834885698749,0.040345570015906225,0.22075747367529494,junk
6174,0.24653136297022393,0.4931418509638897,0.6002724926308942,-0.00944531750217863,0.04544158222410627,0.22075747367529494,junk
6185,0.2480806673054038,0.5010008673169377,0.5975205762427883,-0.014415010467021866,0.04747998042794595,0.22075747367529494,junk
6197,0.25583036378526886,0.5192030134282876,0.5936182685776875,-0.01503622081538522,0.04544158222410627,0.22265345213697907,junk
6208,0.26397056115289447,0.5419565433094277,0.5855880863304278,-0.011930158895632046,0.04136476911782607,0.21886149521361084,junk
6219,0.261643429846159,0.5365782513938231,0.5812290056582847,-0.00820288662751552,0.036268756909626026,0.21317352876476783,junk
6230,0.25931947334338923,0.5258216675626138,0.5750334343364291,-0.007581676279152166,0.03423035870578634,0.20938157184139958,junk
6242,0.25621768986906385,0.5117574511481469,0.570672473939977,-0.011308948547268693,0.03423035870578634,0.20558961491803135,junk
6253,0.25273175511490903,0.5076195214512639,0.571591659126988,-0.018763493083501746,0.03117276140002682,0.2036936053925566,junk
6264,0.24614086208246339,0.5154819267721226,0.5780165568145192,-0.02932408936155157,0.020980736983626742,0.2112775503030837,junk
6275,0.2376165134350084,0.5254082134897066,0.5869640445244808,-0.02683924796809815,0.0240383509879871,0.21506950722645196,junk
6287,0.23102879520652828,0.5324437106647509,0.5927009631149854,-0.020005913780228455,0.0332111596038665,0.21506950722645196,junk
6298,0.23567988301603351,0.5394758188719844,0.5844414545020503,-0.011930158895632046,0.044422383122186423,0.21506950722645196,junk
6309,0.24497888383107844,0.5361647973209158,0.5787045359115457,-0.005096834885698749,0.05053759443230631,0.2112775503030837,junk
6320,0.2484679933891988,0.5270654187491463,0.5791631886428966,-0.0007483522692188698,0.04747998042794595,0.2036936053925566,junk
6332,0.24536620991487346,0.516308834917937,0.5830636165836887,-0.0013695626175822232,0.03830717181206654,0.19421371308413599,junk
6343,0.24110562299312868,0.5150684726992153,0.5865053917931298,-0.007581676279152166,0.027095948293746622,0.18662976817360888,junk
6354,0.24071829690933375,0.5278923268949607,0.5888005351741935,-0.016899851860475282,0.0199615378817069,0.1904217250969771,junk
6366,0.24265492732830862,0.5407161810907061,0.5888005351741935,-0.012551369243995402,0.020980736983626742,0.19231773462245186,junk
6377,0.2442042316634885,0.5369917054667303,0.5878832297114914,-0.006960465930788812,0.02301915188606726,0.1904217250969771,junk
6388,0.24614086208246339,0.5245813053438921,0.5888005351741935,-0.0038544040110356395,0.027095948293746622,0.19231773462245186,junk
6399,0.25621768986906385,0.5196164675011948,0.5931596158463365,-0.003233193662672286,0.03219196050194666,0.19800567000750421,junk
6411,0.26009412551097916,0.5216871268335417,0.5922423103836345,-0.003233193662672286,0.036268756909626026,0.20748559337971548,junk
6422,0.261643429846159,0.520029921574102,0.5901764933682463,-0.0038544040110356395,0.03830717181206654,0.21317352876476783,junk
6433,0.25931947334338923,0.5146550186263081,0.5881125560771668,-0.007581676279152166,0.039326370913986386,0.21317352876476783,junk
6444,0.2550557116176789,0.513824721512683,0.5871933708901562,-0.013793800118658514,0.039326370913986386,0.2112775503030837,junk
6456,0.2504046238081737,0.516308834917937,0.5881125560771668,-0.022490765351618272,0.03423035870578634,0.21506950722645196,junk
6467,0.24497888383107844,0.5221005809064488,0.5901764933682463,-0.021248344654891567,0.03423035870578634,0.21886149521361084,junk
6478,0.24265492732830862,0.5303730513324041,0.5901764933682463,-0.016278641512111926,0.0372879727101467,0.22265345213697907,junk
6489,0.24924264555678874,0.5340975269563798,0.5809996792926092,-0.010066527850541985,0.040345570015906225,0.22265345213697907,junk
6501,0.25273175511490903,0.5229274890522634,0.5780165568145192,-0.00261198331430893,0.040345570015906225,0.22265345213697907,junk
6512,0.2519571029473191,0.5179626512095659,0.5780165568145192,0.001115288953807595,0.036268756909626026,0.22644540906034732,junk
6523,0.24769334122160888,0.5175491971366587,0.5821463111209866,-0.00012713174291911178,0.03117276140002682,0.23213337550919033,junk
6534,0.24110562299312868,0.5187895593553804,0.5883418824428425,-0.0057180452340621045,0.02505755008990694,0.23402935397087443,junk
6546,0.23567988301603351,0.5249947594167994,0.5933889422120119,-0.013172589770295158,0.02199993608554658,0.23592533243255856,junk
6557,0.2314161212903232,0.5316134135511257,0.5952254328617246,-0.012551369243995402,0.02505755008990694,0.23402935397087443,junk
6568,0.23064146912273326,0.5374051595396375,0.5940788010333472,-0.010687738198905339,0.028115147395666465,0.2302373970475062,junk
6579,0.24226760124451363,0.5349244351021942,0.5855880863304278,-0.007581676279152166,0.03117276140002682,0.2302373970475062,junk
6591,0.24962997164058376,0.52044676461482,0.5849001072334014,-0.005096834885698749,0.03219196050194666,0.23402935397087443,junk
6602,0.2546683855338839,0.5225140349793561,0.5883418824428425,-0.0038544040110356395,0.0332111596038665,0.2435092773430857,junk
6613,0.25583036378526886,0.544854110787589,0.5897178406368954,-0.005096834885698749,0.0372879727101467,0.23971728935592682,junk
6624,0.24614086208246339,0.5560241486917055,0.5947667801303738,-0.006339255582425458,0.043403184020266584,0.2245494305986632,junk
6636,0.2380038395188034,0.5551938515780803,0.5993551871681921,-0.0038544040110356395,0.05053759443230631,0.2169655167519267,junk
6647,0.2399404699377783,0.5456810189334034,0.5959134119587512,-0.0044756143593989925,0.049518378631785626,0.21886149521361084,junk
6658,0.24653136297022393,0.5374051595396375,0.5917836576522837,-0.012551369243995402,0.04136476911782607,0.21506950722645196,junk
6669,0.253119081198704,0.5427834514552422,0.5901764933682463,-0.020627124128591807,0.03117276140002682,0.20748559337971548,junk
6681,0.25621768986906385,0.534510981029287,0.6087632073338136,-0.023733186048344984,0.0199615378817069,0.20748559337971548,junk
6692,0.2604814515947741,0.5237543971980778,0.6303330437774711,-0.020005913780228455,0.015884724775426698,0.2169655167519267,junk
6703,0.2686216489623997,0.5121709052210541,0.6498370632057402,-0.013793800118658514,0.02199993608554658,0.23402935397087443,flick
6714,0.2721075837165545,0.5076195214512639,0.6700290617310359,-0.010687738198905339,0.0372879727101467,0.25298916965150625,flick
6726,0.2674564959070492,0.5084464295970784,0.6996290804219529,-0.010687738198905339,0.05053759443230631,0.27384499485761293,flick
6737,0.2628085829015095,0.510103634856518,0.7402424038382198,-0.013172589770295158,0.055633589941905516,0.3098686788209831,flick
6748,0.2686216489623997,0.5109305430023324,0.7964611984662728,-0.021248344654891567,0.05767200484434602,0.34210040586098506,flick
6759,0.27908262802882955,0.4914880346722608,0.8779190513887907,-0.03677863389778462,0.07194082566842548,0.3913959390561441,flick
6771,0.280635107167975,0.4534265371901214,0.9880577378152152,-0.06411196047132701,0.11576650394118447,0.4558593931361481,flick
6782,0.24691868905401884,0.45921828317863317,1.2489521935329486,-0.09889983158110247,0.20443704289002151,0.5241148041395203,flick
6793,0.22327592392269768,0.5233409431251705,1.3691887589463294,-0.1256119376283451,0.3481444836299375,0.5961621410024701,flick
6805,0.20157296401431685,0.5924284409144053,1.4662502033563245,-0.12809677902179853,0.5519848049719307,0.6701054873908945,flick
6816,0.18878485364115155,0.6147685167226381,1.5346289345381048,-0.10883922768872535,0.8027083851938417,0.713713116264792,flick
6827,0.1976997031763671,0.5775339273863132,1.5807498501792008,-0.07343013605265013,1.3316741384713102,0.649249662184788,flick
6838,0.22947631606738278,0.5154819267721226,1.613332991348208,-0.07405134640101349,1.5895320456122566,0.6113299997597337,flick
6850,0.2678438219908442,0.46625039138586666,1.616316113826298,-0.07839982901749337,1.8545244967540495,0.590474174553627,flick
6861,0.3135768731143411,0.4385354126298399,1.5711125036479041,-0.07964225989215648,2.106267309475082,0.5790982727197317,flick
6872,0.41550077962379955,0.36075860137393206,1.3953470024278054,-0.07839982901749337,2.3152037933126826,0.5828902607068905,flick
6884,0.4519316551282861,0.32394085507832493,1.2992047432048208,-0.08461195285699973,2.4803144652887177,0.6075380428363655,flick
6895,0.4809969854327369,0.34090263897095324,1.2081095437510059,-0.10449073489430906,2.6311563164406735,0.649249662184788,flick
6906,0.508900337485803,0.3946821691591886,1.1154071800131542,-0.13120284094155168,2.788113128423736,0.7004412049054218,flick
6917,0.5375783417064588,0.4013008232935149,1.0302782255155194,-0.1529452642018875,2.9491470039920924,0.747840821766478,flick
6929,0.5724599128757655,0.37068827705932683,0.9462959028462623,-0.1883543558379627,3.271214738430203,0.8426399933610091,flick
6940,0.6038491996829861,0.3557971524990454,0.8469411947795121,-0.2100967689203621,3.4454982357207182,0.8919354954923775,flick
6951,0.6387307708522928,0.3773069311936531,0.7283117936501684,-0.23556644409294164,3.6187625172107127,0.9393350812896432,flick
6963,0.7569318972930368,0.48983082941282124,0.4639755627229938,-0.2678694636313273,3.7838732058853486,0.9905266240102769,flick
6974,0.8247520596047442,0.5560241486917055,0.3148269577157223,-0.29893005229504976,3.947964678759464,1.0398221882692267,flick
6985,0.9003250932002818,0.630486549428734,0.15351841615472325,-0.31446035171587927,4.10492174122154,1.0777418817580717,flick
6997,0.9677579294281942,0.6863367389493162,0.023415177844369882,-0.3138391413675159,4.229264348929177,1.1137655657214418,flick
7008,1.0433309630237317,0.724394847463645,-0.07892453242477901,-0.30886944840267266,4.313858091470334,1.1668530869037599,flick
7020,1.1169641913963293,0.7670043397477639,-0.18837523975417697,-0.3293694407883454,4.379087251458225,1.305259918435979,flick
7031,1.192924551075662,0.8303000915484868,-0.3081531524362071,-0.35546036702103384,4.365837629736065,1.3355956670142968,flick
7042,1.2619098664427197,0.8935958433492097,-0.4146226170118237,-0.36664217364744706,4.337299988087906,1.3261157436420854,flick
7054,1.328180724419247,0.9895714117486568,-0.6330653789392685,-0.3480058224848008,4.306723681058295,1.284404124293663,flick
7065,1.3735232746549835,0.965577519648795,-0.7237019256617324,-0.3188088343323591,4.276147624507695,1.2351085289709225,flick
7076,1.4409561108828959,0.9316539518635386,-0.7858850855216567,-0.3026573245631663,4.255763592373495,1.2009807924054459,flick
7087,1.5533473460667153,0.9109710813147452,-0.8425625328810604,-0.3132179310191526,4.230283548031096,1.197188804418287,flick
7099,1.672323124675049,0.9109710813147452,-0.8953376725753635,-0.3504906638782542,4.165054638522218,1.2237326271370275,flick
7110,1.7401464617907219,0.9378591519249575,-0.9588967906293405,-0.4405663577717322,3.921465435315145,1.3147398418081901,flick
7121,1.762624073866693,0.9841931198330522,-1.0474675203364163,-0.462308781032068,3.7879500022930284,1.305259918435979,flick
7133,1.7924640563387335,1.0429374878639848,-1.1394819049772422,-0.45982392946067824,3.6707418049974314,1.248380440330293,flick
7144,1.844784825690711,1.170355899611245,-1.234477532371849,-0.43311181323549913,3.5779944529423147,1.1820209456610233,flick
7155,1.8602842186504407,1.2464755056077135,-1.2831229177596843,-0.3970815621407426,3.5158231574377963,1.1289334244787055,flick
7167,1.9033028123834075,1.2832932519033204,-1.3783478715199668,-0.3591876392891504,3.4628246538505576,1.0739498937709127,flick
7178,1.9959277180778208,1.2609531760950876,-1.4765559477583396,-0.3256421685202288,3.3721157166978806,0.9924226335357517,flick
7189,2.1032773645643745,1.2464755056077135,-1.539656413080966,-0.29893005229504976,3.210062642027605,0.8995194404029047,flick
7201,2.1854381163883922,1.2584724516576442,-1.5768298410121002,-0.22686946868204547,2.720846071190031,0.7781765703447958,flick
7212,2.2152812736643988,1.2390299433275727,-1.5910555945812157,-0.18400586304354644,2.4803144652887177,0.7819685272681641,flick
7224,2.2106301858548933,1.2080005540526668,-1.5878431457374502,-0.1529452642018875,2.2927813462760427,0.8255761561420614,flick
7235,2.1021153863129896,1.1906253160871312,-1.6550752450908528,-0.13493011320966822,2.1623234103680806,0.876767636735114,flick
7246,2.021119787544322,1.212965391895364,-1.7096849957105595,-0.11380892065356857,2.0889408746466422,0.8938314739540616,flick
7258,2.0195673084051764,1.2712963058533897,-1.7663624430699636,-0.08709680442838953,2.0583648347946437,0.8710797013500616,flick
7269,2.1090904306252645,1.337486236164463,-1.8253331540861222,-0.08399074250863638,2.0318655913503245,0.8274721346037456,flick
7280,2.2187672084185532,1.3809260255622071,-1.8808620898928397,-0.17220283589083352,1.8382172610275296,0.7231930396370032,flick
7291,2.2780630220828058,1.4057468258078833,-1.934325208684169,-0.15915737786345743,1.6669913777413745,0.6776894323014216,flick
7303,2.282326783808516,1.4272599934703016,-1.9838878995347062,-0.09517255931298595,1.4804774578306195,0.6189139446702608,flick
7314,2.2772883699152158,1.453734610007607,-2.0281742042503987,-0.033672582155967856,1.2898868751009918,0.5411786102946773,flick
7325,2.285815893366636,1.486831269647049,-2.1172035866888255,-0.024975606745071693,1.1105072988078728,0.44827544822562093,flick
7337,2.2451212561364393,1.4553884262992358,-2.169061420920426,-0.060384688203210496,0.9545694354477172,0.34968431970772157,flick
7348,2.2044297937102084,1.4136058421609314,-2.2248196830928193,-0.08833922512511626,0.8220732182261211,0.27574097331929703,flick
7359,2.1784630720761173,1.406987188026605,-2.283331741377627,-0.08150589093724654,0.7018074737205674,0.2435092773430857,flick
7370,2.160636547809652,1.4285003556890234,-2.347580718252939,-0.05230893331861408,0.5856184922254913,0.25867713610034926,flick
7382,2.1664496138705416,1.4520807937159779,-2.395996777275099,-0.018142282735138394,0.333875662805858,0.3534763076948804,flick
7393,2.201328010235883,1.4839337021688879,-2.411829695128252,-0.020627124128591807,0.19220662026978177,0.38949996059446,flick
7404,2.25519808392304,1.5356459619925868,-2.4058634501720717,-0.010066527850541985,0.04238396821974591,0.3970839055049872,flick
7415,2.3706879277772193,1.6270735355900545,-2.3950775920880885,0.023478912384570356,-0.11763069154808918,0.38002003722224875,flick
7427,2.4109920641196556,1.6353460060160099,-2.3911771641472965,0.061994055762462336,-0.29191415544140287,0.3439963843226692,flick
7438,2.418744935403486,1.6287273518816836,-2.3842936137284143,0.08125162745140833,-0.4835240708617572,0.29849277698708776,flick
7449,2.4024677154722007,1.6324518275056592,-2.365248247031496,0.07690314483492844,-0.6863451931018306,0.2454052558047698,flick
7460,2.3827013859827946,1.6448622276284972,-2.323027759331192,0.06820617960196868,-0.8810127058279446,0.188525746635293,flick
7472,2.360998426074414,1.65809953589715,-2.275989538227394,0.11603948838324737,-1.1939076984445791,0.09372657504076184,flick
7483,2.344333880059333,1.68540444954808,-2.227573479205234,0.17567584467311181,-1.323346184771609,0.03495111847339153,flick
7494,2.332320421853758,1.7114656120124778,-2.164702340248283,0.23096368781268714,-1.4385159838633659,-0.03520027099166478,flick
7506,2.3082935054426073,1.6812665198511971,-2.092881833857062,0.2763121552005124,-1.5312633359184833,-0.10914358631629865,flick
7517,2.3365841835794683,1.506687232050028,-1.9554363923964753,0.31110004666616065,-1.6036266558394012,-0.17550301885798672,flick
7528,2.371849906028604,1.4462890477274661,-1.9088549442997194,0.3222818634705103,-1.6708939802507197,-0.23048651850198879,flick
7540,2.394327518104575,1.4144327503067458,-1.8586042743521558,0.306751543693808,-1.752430108787517,-0.27030219045251785,flick
7551,2.417970283235896,1.4057468258078833,-1.7888495849763228,0.2781757964235389,-1.8502734730508343,-0.29305399412030864,flick
7562,2.4319203718604463,1.4011954420380932,-1.7103748545318949,0.2452515665367899,-2.066344233711668,-0.23427850648914766,flick
7574,2.428431262302326,1.3974743553819282,-1.6362592047596098,0.25022125950163315,-2.167245328869552,-0.1698150524091437,flick
7585,2.412931869342596,1.4318079882722812,-1.5731587394369837,0.266372769270826,-2.2589734818227494,-0.12810343306072117,flick
7597,2.2862032194504316,1.5708098919965652,-1.4852759888269345,0.2955697268894584,-2.327260005335988,-0.12620745459903704,flick
7608,2.1900892041978977,1.6105252057703336,-1.4595763980768095,0.34340306620454625,-2.3445864401644276,-0.14137531335630066,flick
7619,2.159474569558267,1.5885985840350079,-1.4308936848485945,0.4067666438728452,-2.3119719854099885,-0.15275121519019602,flick
7631,2.209468207603509,1.5174438158812371,-1.389819828976668,0.46329692806502004,-2.2671271080353095,-0.1736070403963026,flick
7642,2.2935655898465015,1.4185706800036286,-1.335210078356961,0.4937363165583157,-2.2528582705126294,-0.22100662619356817,flick
7654,2.3613857521582085,1.325489290114532,-1.2679779790035581,0.4719939034759163,-2.437333792219545,-0.36130940512368076,flick
7665,2.358287143487849,1.2592993598034588,-1.178260617468105,0.42788785678481767,-2.6136556877139,-0.40681295033168097,flick
7676,2.2687608464637954,1.2183436838109687,-1.0642196233765797,0.37322124434947856,-2.763478089284923,-0.44852456968010346,flick
7688,2.0304187883593667,1.1815259375153617,-0.8076842483309896,0.31855459120239377,-2.8338029943034004,-0.47317235180957834,flick
7699,1.9188053801471032,1.1504999372082663,-0.709017519361266,0.28252427904001876,-2.8113805639653617,-0.4542125361289466,flick
7710,1.8785012438046669,1.1401568074499644,-0.6493569495237721,0.27010004153894246,-2.7216908092160037,-0.41818885216557633,flick
7722,1.884701635949352,1.1306405858374768,-0.6209054423855412,0.2806606378169923,-2.6095788746076196,-0.4087089287933651,flick
7733,1.8753994603303414,1.086377277261729,-0.5917640764259752,0.311721257014524,-2.5025627017284227,-0.4295647539994717,flick
7744,1.9048521167185872,1.039629855280727,-0.5332520181411675,0.3763272960912953,-2.3119719854099885,-0.49592415547736907,flick
7755,1.966475061689575,0.9829527576143304,-0.4455985938967936,0.3738424546978419,-2.24980067320687,-0.48265227518178955,flick
7767,2.0199546344889714,0.9093172650231164,-0.3501443137708357,0.34340306620454625,-2.212090206244231,-0.4087089287933651,flick
7778,2.0932037115817397,0.8708423134680696,-0.24574066621060733,0.28811518235322536,-2.1947637881143915,-0.3120138408647311,flick
7790,2.104442517619725,0.9610261358790049,-0.21797525844509397,0.21916066065997422,-2.193744572313871,-0.266510202465359,flick
7801,2.0904892541912092,1.0706558555878225,-0.21109170802621186,0.15703948333252918,-2.2080134098365516,-0.3120138408647311,flick
7812,2.024993048382272,1.114505710090663,-0.21843391117644498,0.12784251553596032,-2.2304358401745907,-0.4295647539994717,flick
7824,1.9203546844822827,1.0723096718794514,-0.238857115791725,0.14088796338539994,-2.2273782428688307,-0.5565956215702141,flick
7835,1.8230818657823298,1.012738395702704,-0.2553780127419042,0.2179182399632475,-2.068382648614109,-0.6324349774841135,flick
7846,1.800991579790154,1.0061197415683778,-0.23357884993257114,0.2533273214213863,-1.978692893864751,-0.5490117077234777,flick
7858,1.8525345221705756,1.0239084336068205,-0.19089970950091611,0.27010004153894246,-1.9613664590363111,-0.4447326127567353,flick
7869,1.905629943690143,1.0388029471349125,-0.11563742790025394,0.268236400315916,-2.0367873929615894,-0.397333089087051,flick
7880,1.8560236317286962,0.9961900658829831,-0.06951651225915777,0.25270610089508655,-2.171322141975832,-0.43146073246115585,flick
7892,1.7428577443772868,0.9266925029886518,-0.021100453236997854,0.22164551223136403,-2.3078951723037084,-0.5091960357729486,flick
7903,1.5917148519901767,0.8720826756867912,0.025020462404098325,0.17878190659286497,-2.3853545044328266,-0.581243403699689,flick
7914,1.4440578943572213,0.8236814374141606,0.06701162373872693,0.08622132041625155,-2.2569350836189095,-0.6096831738163228,flick
7926,1.3425181391275924,0.7872771451914606,0.10326586648285084,0.059509204191072515,-2.0806130545357475,-0.5736594898529526,flick
7937,1.3006646984499761,0.7727960857362757,0.14066862077966086,0.060130414539435864,-1.898175947731273,-0.5167799806834757,flick
7948,1.316167266213672,0.7699019072259252,0.19206592255560204,0.07441829326353862,-1.7697565436159568,-0.4542125361289466,flick
7960,1.391737125005244,0.7761071072873442,0.3143683049843713,0.08684254094255132,-1.7167580567273184,-0.39543711062536685,flick
7971,1.371199318152214,0.7628697990186917,0.36048922062546745,0.08746374111297826,-1.7208348531349977,-0.36889335003420787,flick
7982,1.3115161784041667,0.7339110690761325,0.3907772184134109,0.07503951378983838,-1.7554877227918775,-0.40491697186999687,flick
7994,1.2301300787477387,0.714051717705343,0.4020217292287451,0.05516072157459263,-1.7901405757501563,-0.49592415547736907,flick
8005,1.13130478090864,0.7194300096209476,0.4068394626322391,0.03900921180539982,-1.7993133843660356,-0.5926193055335843,flick
8016,1.0266664170086515,0.7413566313562732,0.4164768091635359,0.07503951378983838,-1.6403179237001204,-0.5736594898529526,flick
8028,0.9685357563997494,0.7699019072259252,0.4412590944509589,0.12038797099972724,-1.487437674344325,-0.49592415547736907,flick
8039,0.9863622806662151,0.8046523831569962,0.4878386628234061,0.15641827298416583,-1.3579990544284886,-0.44662859121841936,flick
8050,1.0328668091533364,0.8418835835255104,0.578933862277221,0.1713273620566319,-1.2907318636059766,-0.45800449305231483,flick
8061,1.0103891970773657,0.7926554371070653,0.6053214321243725,0.16387281752039887,-1.2734054287775367,-0.5281558825173711,flick
8073,0.9805492146053248,0.6991605931450615,0.6126636352746057,0.13778190146564678,-1.2754438436799773,-0.6324349774841135,flick
8084,0.955357145138824,0.5944957112789414,0.5936182685776875,0.0992667682656912,-1.2744246278794567,-0.7348180629253811,flick
8095,0.9197040966058927,0.5026546836085666,0.567689351461887,0.05391830087786593,-1.267290217467417,-0.7992815480691756,flick
8107,0.8662213490025306,0.4472213371287023,0.5686085366488978,-0.0019907729659455766,-1.1939076984445791,-0.7291301275403287,flick
8118,0.8104146448963987,0.4476347912016095,0.6000431662652186,0.009191043838404002,-1.1082947568015016,-0.6058911858291638,flick
8129,0.7720471389729374,0.47535315892544705,0.634233471718263,0.035281949715219696,-1.0114705248457008,-0.499716143464528,flick
8140,0.8092526666450138,0.4861097427566562,0.6851721207628535,0.05516072157459263,-0.9452224162349028,-0.45042057920557826,flick
8152,0.8274665169952743,0.4947956672555186,0.6973339370408894,0.05516072157459263,-0.9278959981050638,-0.4561085145906307,flick
8163,0.8096399927288087,0.4914880346722608,0.7067419572065107,0.042115273725152995,-0.9431840180310631,-0.49023622009231677,flick
8174,0.7720471389729374,0.4827987212055877,0.7253286711720782,0.020994070991116942,-0.971721659679222,-0.520571937606844,flick
8185,0.7205041965925157,0.4745262507796325,0.7441447115033207,-0.00261198331430893,-0.9941441067158618,-0.5338438179024234,flick
8197,0.6643069915986234,0.4658369373129595,0.7606656084535001,-0.04050590616590115,-0.9452224162349028,-0.4921321985540009,flick
8208,0.6154753318047664,0.46666384545877393,0.7840700558225614,-0.03739985442408438,-0.8555326614855451,-0.43146073246115585,flick
8219,0.5716852607081755,0.47824733743579756,0.8065571977289206,-0.011930158895632046,-0.7281324564721492,-0.35372549127694425,flick
8231,0.5461058651578794,0.4827987212055877,0.8246833792388283,0.017888009071363762,-0.5895210947348365,-0.2873660587352562,flick
8242,0.5430040816835541,0.434397482932957,0.8496949908919265,0.03466072918891994,-0.4661976527319182,-0.2513423437080954,flick
8253,0.5534682355539495,0.4037849366987689,0.8432700932043954,0.030312246572440058,-0.37650789798256057,-0.24565440832304303,flick
8265,0.5720725867919705,0.40419839077167613,0.8311082769263594,0.012297105758157179,-0.33777823191800155,-0.26271824554199075,flick
8276,0.5864100015003157,0.42364089910174774,0.816882523357244,-0.006960465930788812,-0.3428742441262016,-0.2854700802735721,flick
8287,0.5825367406623659,0.4306730073089813,0.8054086861762346,-0.03802106477244774,-0.38058471108884073,-0.29495000364578333,flick
8298,0.5534682355539495,0.4257081694662838,0.7964611984662728,-0.0479604507021342,-0.3693734875705208,-0.277886135363045,flick
8310,0.508125685318213,0.42364089910174774,0.7909536062414433,-0.05168772297025073,-0.3224902119920023,-0.24375839879756828,junk
8321,0.4643324394176563,0.4190895153319576,0.7838407294568855,-0.045475599130744386,-0.24197329925572564,-0.18498294223019796,junk
8332,0.44689324123498586,0.38806351502486236,0.7473571603470867,-0.031187730584578036,-0.14616833319624806,-0.1167275312268258,junk
8344,0.46743422289198167,0.36779409854897627,0.724870018440727,-0.013793800118658514,-0.06361298885893009,-0.05605609619777136,junk
8355,0.48681005149362716,0.3744127526833026,0.7039881610940959,-0.0038544040110356395,-0.008576103766451994,-0.00676050087503102,junk
8366,0.5011506410059379,0.4116439530518169,0.6911383657190338,-0.0044756143593989925,0.015884724775426698,0.031159161550023292,junk
8377,0.5069637070668281,0.4534265371901214,0.681730345553412,-0.0038544040110356395,0.0199615378817069,0.05770292214118228,junk
8389,0.49959816186679235,0.48403908342430935,0.6737001633061528,0.025963763955960173,0.005692717057627452,0.0956225845662366,junk
8400,0.48719737757742215,0.4885904671940996,0.6748467951345302,0.03590316006358305,0.0036543188537877715,0.10699848640013196,junk
8411,0.4813843115165319,0.4815583589868661,0.6810423664563858,0.027827405178986644,0.005692717057627452,0.11458240024686844,junk
8422,0.4813843115165319,0.5096901807836107,0.6867792850468908,0.008569833490040648,0.014865525673506859,0.12216634515739558,junk
8433,0.4747965932880518,0.5403027270177988,0.6798957346280085,-0.006339255582425458,0.036268756909626026,0.1392301823763433,junk
8445,0.4689835272271617,0.5585048731291486,0.6629161849464782,-0.006960465930788812,0.07092162656650564,0.15629405065908167,junk
8456,0.46743422289198167,0.551059310849008,0.6408876957714698,0.004221350873560769,0.10965127593246378,0.16577394296750225,junk
8467,0.47402194112046175,0.5340975269563798,0.6209250236118496,0.020372860642753586,0.14430414558934337,0.16766995249297703,junk
8478,0.4837114428232672,0.5175491971366587,0.6055507584900481,0.04460012529654281,0.17793779944570232,0.17525386633971352,junk
8490,0.49029916105174753,0.4885904671940996,0.5920129840179591,0.042736484073516344,0.17793779944570232,0.1790458543268724,junk
8501,0.49611222711263764,0.4658369373129595,0.5768680452618329,0.030312246572440058,0.16366896192302202,0.18473378971192472,junk
8512,0.49959816186679235,0.46956141293693515,0.5624129653270421,0.016645588374637057,0.13513132027486313,0.19800567000750421,junk
8523,0.48719737757742215,0.5121709052210541,0.5553000885424844,0.006706192267014183,0.10251686552042405,0.2169655167519267,junk
8535,0.4775078758746167,0.5216871268335417,0.5539222506241225,-0.0038544040110356395,0.08009443518238503,0.23782131089424266,junk
8546,0.47208213589752146,0.5291326891136824,0.5474973529365913,-0.020005913780228455,0.07092162656650564,0.2454052558047698,junk
8557,0.46743422289198167,0.5415430892365205,0.5419916404360707,-0.03677863389778462,0.06990241076598495,0.23971728935592682,junk
8568,0.4627831350824764,0.5593317812749632,0.5374013536739435,-0.045475599130744386,0.07092162656650564,0.23213337550919033,junk
8580,0.46239580899868143,0.5849794896664539,0.5316644350834385,-0.03491500285269456,0.06684481346022543,0.22075747367529494,junk
8591,0.46162115683109156,0.6044253869643361,0.5263880489485936,-0.020005913780228455,0.05869120394626587,0.2112775503030837,junk
8602,0.45619541685399634,0.5916015327685908,0.5250102110302318,-0.0038544040110356395,0.05461439083998568,0.19990164846918837,junk
8613,0.46239580899868143,0.5316134135511257,0.5181266606113497,0.005463771570287476,0.05665280574242619,0.19231773462245186,junk
8625,0.46704689680818684,0.5196164675011948,0.5197338248953869,0.007948623141677295,0.05665280574242619,0.19231773462245186,junk
8636,0.4643324394176563,0.5105170889294253,0.5257000698515671,0.008569833490040648,0.05053759443230631,0.20179762693087247,junk
8647,0.45851937335676624,0.5067926133054494,0.5291418450610083,0.0029789199988976577,0.04544158222410627,0.21317352876476783,junk
8658,0.454255611631056,0.5179626512095659,0.5289125186953328,-0.00944531750217863,0.044422383122186423,0.22265345213697907,junk
8670,0.45309363337967096,0.5407161810907061,0.5289125186953328,-0.023733186048344984,0.04646078132602611,0.22265345213697907,junk
8681,0.45503026379864586,0.5535400352864513,0.527993333508322,-0.020627124128591807,0.04849917952986579,0.22075747367529494,junk
8692,0.4589066994405612,0.5502324027031935,0.5206511303580889,-0.018763493083501746,0.04544158222410627,0.21886149521361084,junk
8703,0.4666595707243918,0.5580914190562415,0.5139969063048822,-0.016278641512111926,0.029134346497586304,0.20938157184139958,junk
8715,0.46239580899868143,0.5767070192404987,0.5323542939047738,-0.011308948547268693,0.0036543188537877715,0.19231773462245186,junk
8726,0.4476678934025759,0.5469213811521251,0.5413017816147354,-0.007581676279152166,-0.015710514178491713,0.17714984480139762,junk
8737,0.43642908736459035,0.5328571647376581,0.5442849040928256,-0.008824096975878874,-0.021825725488611596,0.17146190941634523,junk
8748,0.433327303890265,0.5382354566532627,0.5536929242584471,-0.006960465930788812,-0.01978732728477191,0.17525386633971352,junk
8759,0.43836571778356526,0.5382354566532627,0.5704431475743016,0.0029789199988976577,-0.016729713280411552,0.18662976817360888,junk
8771,0.4480552194863707,0.5233409431251705,0.5814583320239601,0.017888009071363762,0.0036543188537877715,0.21506950722645196,junk
8782,0.45619541685399634,0.5113439970752397,0.5812290056582847,0.016024378026273704,0.010788729265827498,0.2245494305986632,junk
8793,0.4600686776919461,0.5216871268335417,0.579392515008572,0.014781947151610592,0.014865525673506859,0.22834138752203145,junk
8804,0.4604560037757411,0.5411296351636132,0.5819169847553112,0.014160736803247238,0.020980736983626742,0.2302373970475062,junk
8816,0.4569700690215863,0.5146550186263081,0.5796218413742474,0.004842561221924123,0.030153562298106982,0.23213337550919033,junk
8827,0.45348095946346595,0.5171357430637514,0.574574781605078,-0.018763493083501746,0.03524955780770619,0.2302373970475062,junk
8838,0.44960452382155075,0.5568510568375199,0.571591659126988,-0.04733924035377085,0.029134346497586304,0.22075747367529494,junk
8849,0.4484425455701657,0.6064926573288723,0.5718209854926634,-0.06349075012296367,0.015884724775426698,0.20748559337971548,junk
8861,0.4480552194863707,0.6296596412829196,0.5722796382240143,-0.05852105715812043,0.005692717057627452,0.19421371308413599,junk
8872,0.4445661099282505,0.6251082575131294,0.570672473939977,-0.016278641512111926,0.010788729265827498,0.16198198604413402,junk
8883,0.43526710911320554,0.6002874572674531,0.5690671893802488,0.001115288953807595,0.015884724775426698,0.14491814882518628,junk
8894,0.42208849785227964,0.5543669434322658,0.5738849227837428,0.008569833490040648,0.02505755008990694,0.13543822545297504,junk
8905,0.4104623657304993,0.5051387970138206,0.5844414545020503,0.0017364993021709509,0.04849917952986579,0.14302217036350218,junk
8917,0.4178279109305349,0.49107458059935355,0.584670780867726,-0.016899851860475282,0.0770368378766255,0.17146190941634523,junk
8928,0.433327303890265,0.5278923268949607,0.5777872304488436,-0.033672582155967856,0.09538245510838432,0.20179762693087247,junk
8939,0.445731262983601,0.5618158946802172,0.5741142491494182,-0.036157423549421266,0.10047846731658436,0.21506950722645196,junk
8950,0.4519316551282861,0.581671857083196,0.5709018003056526,-0.024354396396708333,0.09640165421030417,0.20938157184139958,junk
8961,0.454255611631056,0.5887039652904296,0.566313393267834,-0.005096834885698749,0.08926724379826444,0.19800567000750421,junk
8973,0.45348095946346595,0.585809786780079,0.5612644537743557,0.035281949715219696,0.06786401256214528,0.19231773462245186,junk
8984,0.4484425455701657,0.5733993866572409,0.5566760467365371,0.04646375634163288,0.060729602150105554,0.1961096915458201,junk
8995,0.43914354475512074,0.5522996730677296,0.5548414358111333,0.04522133564490617,0.06174880125202539,0.1961096915458201,junk
9006,0.4348797830294105,0.5221005809064488,0.554151576989798,0.03217588779546652,0.07092162656650564,0.1961096915458201,junk
9017,0.4434041316768655,0.5262351216355211,0.5548414358111333,0.011675885231857419,0.08519044739058508,0.1961096915458201,junk
9029,0.45658274293779133,0.5403027270177988,0.5580538846548989,-0.00944531750217863,0.09232485780262481,0.1961096915458201,junk
9040,0.46937085331095657,0.5589183272020559,0.5601178219459784,-0.025596827271371445,0.09130565870070496,0.188525746635293,junk
9051,0.47634589762323165,0.5725690895436157,0.5598884955803027,-0.0330513616296681,0.08315204918674539,0.17714984480139762,junk
9062,0.47285996286907694,0.5762935651675914,0.5585125373862498,-0.025596827271371445,0.06276800035394524,0.15060608421023866,junk
9074,0.46355778725006647,0.5729825436165229,0.5548414358111333,-0.012551369243995402,0.05665280574242619,0.14491814882518628,junk
9085,0.45735739510538137,0.5556073056509875,0.5495631699519794,0.0004940786054442416,0.05767200484434602,0.1468141272868704,junk
9096,0.4546429377148508,0.5291326891136824,0.5472680265709157,0.006706192267014183,0.06276800035394524,0.15060608421023866,junk
9107,0.4569700690215863,0.4906577375586357,0.5454334156455118,0.0029789199988976577,0.07194082566842548,0.15819002912076577,junk
9118,0.46394511333386146,0.49810668880658715,0.5408431288833846,-0.010687738198905339,0.08213283338622472,0.16577394296750225,junk
9130,0.4705328315623416,0.5117574511481469,0.5332715993674759,-0.024975606745071693,0.0902864429001843,0.16956593095466113,junk
9141,0.4771205497908217,0.5237543971980778,0.5268467016799445,-0.033672582155967856,0.0902864429001843,0.1733578878780294,junk
9152,0.48409876890706227,0.5311999594782185,0.523634252836179,-0.03243015128130474,0.08111363428430488,0.1733578878780294,junk
9163,0.4891371828003625,0.526651964676239,0.523175600104828,-0.00944531750217863,0.044422383122186423,0.16956593095466113,junk
9174,0.487584703661217,0.5096901807836107,0.5247808846645564,0.0029789199988976577,0.02607674919182678,0.17146190941634523,junk
9186,0.47828570284617217,0.49520912132842576,0.5257000698515671,0.011054674883494067,0.015884724775426698,0.1809418327885565,junk
9197,0.46394511333386146,0.4881770131211923,0.5268467016799445,0.014160736803247238,0.014865525673506859,0.19421371308413599,junk
9208,0.44728056731878085,0.47411279670672535,0.5339595784645023,0.010433464535130712,0.02301915188606726,0.20938157184139958,junk
9219,0.45619541685399634,0.47328588856091086,0.5374013536739435,-0.0013695626175822232,0.03423035870578634,0.2245494305986632,junk
9231,0.46704689680818684,0.5034849807221917,0.5433675986301237,-0.018142282735138394,0.04238396821974591,0.23782131089424266,junk
9242,0.47285996286907694,0.5394758188719844,0.5504804754146815,-0.028702879013188215,0.04646078132602611,0.2454052558047698,junk
9253,0.47402194112046175,0.5576779649833342,0.5516289869673676,-0.0262180376197348,0.043403184020266584,0.2454052558047698,junk
9264,0.47363461503666693,0.5618158946802172,0.549792496317655,-0.0019907729659455766,0.02505755008990694,0.22644540906034732,junk
9275,0.47324728895287194,0.5535400352864513,0.5495631699519794,0.007948623141677295,0.015884724775426698,0.21506950722645196,junk
9287,0.4713074837299314,0.5361647973209158,0.5502511490490058,0.013539526454883885,0.009769513465306821,0.2112775503030837,junk
9298,0.4662690698366312,0.5249947594167994,0.5553000885424844,0.014781947151610592,0.010788729265827498,0.21317352876476783,junk
9309,0.4662690698366312,0.5311999594782185,0.5803098204712741,0.016024378026273704,0.016903940575947376,0.21506950722645196,junk
9320,0.46743422289198167,0.5233409431251705,0.591095678555257,0.016645588374637057,0.0240383509879871,0.21506950722645196,junk
9332,0.4685962011433667,0.516308834917937,0.6009623514522295,0.012297105758157179,0.03117276140002682,0.20938157184139958,junk
9343,0.46937085331095657,0.5270654187491463,0.6087632073338136,0.001115288953807595,0.040345570015906225,0.19990164846918837,junk
9354,0.4654944176690413,0.5456810189334034,0.6085338809681382,-0.011930158895632046,0.051556793534226146,0.18662976817360888,junk
9365,0.4581320472729712,0.5568510568375199,0.6027969623776334,-0.014415010467021866,0.07805603697854535,0.18662976817360888,junk
9376,0.454255611631056,0.5527131271406369,0.5959134119587512,-0.0057180452340621045,0.08926724379826444,0.19421371308413599,junk
9388,0.45619541685399634,0.5357513432480085,0.5860467390617787,0.0017364993021709509,0.09844006911274468,0.19990164846918837,junk
9399,0.47208213589752146,0.505965705159635,0.554610229721149,0.006706192267014183,0.10353608132094472,0.20558961491803135,junk
9410,0.47906035501376204,0.49520912132842576,0.5403844761520336,0.008569833490040648,0.10047846731658436,0.2112775503030837,junk
9421,0.47828570284617217,0.49644948354714746,0.5321249675390984,0.006706192267014183,0.08824804469634459,0.2245494305986632,junk
9432,0.46975817939475156,0.5105170889294253,0.5270760280456201,0.001115288953807595,0.06990241076598495,0.2435092773430857,junk
9444,0.4604560037757411,0.5365782513938231,0.5217977621864663,-0.0038544040110356395,0.051556793534226146,0.25867713610034926,junk
9455,0.4515443290444911,0.5725690895436157,0.5185853133427007,-0.0013695626175822232,0.039326370913986386,0.25298916965150625,junk
9466,0.44689324123498586,0.6064926573288723,0.5165213760516213,0.007948623141677295,0.040345570015906225,0.23592533243255856,junk
9477,0.44960452382155075,0.6222140790027788,0.5117017629238184,0.020372860642753586,0.036268756909626026,0.21506950722645196,junk
9489,0.45348095946346595,0.6160088789413598,0.5045888861392607,0.03466072918891994,0.0240383509879871,0.19990164846918837,junk
9500,0.444956610816011,0.565123527263475,0.5002298054671177,0.04584254599326952,0.00875031436338698,0.1904217250969771,junk
9511,0.4348797830294105,0.5394758188719844,0.5036715806765589,0.052054659654839464,-0.0034800915582519475,0.18473378971192472,junk
9522,0.4232536509076302,0.52044676461482,0.5089479668114039,0.05391830087786593,-0.006537705562612305,0.1790458543268724,junk
9534,0.41860256309812494,0.4972797806607726,0.5144555590362332,0.05143344930647611,-0.0034800915582519475,0.1733578878780294,junk
9545,0.4228663248238351,0.4633562128755161,0.5197338248953869,0.04460012529654281,0.0036543188537877715,0.16956593095466113,junk
9556,0.4290667169685204,0.4372916614433075,0.5268467016799445,0.00608498191865083,0.020980736983626742,0.1790458543268724,junk
9567,0.43642908736459035,0.4360512992245858,0.5330422730018005,-0.018142282735138394,0.029134346497586304,0.19231773462245186,junk
9578,0.445731262983601,0.45921828317863317,0.5360253954798906,-0.03429379250433121,0.03524955780770619,0.20179762693087247,junk
9590,0.4589066994405612,0.49396875910970417,0.5383186591366454,-0.03864227512081109,0.03117276140002682,0.2036936053925566,junk
9601,0.48177163760032693,0.5382354566532627,0.5525462924300696,-0.030566520236214683,0.016903940575947376,0.19800567000750421,junk
9612,0.47828570284617217,0.5378186136125447,0.5612644537743557,-0.014415010467021866,-0.0014416933544122669,0.188525746635293,junk
9623,0.46743422289198167,0.528305780967868,0.5695258421115996,0.0029789199988976577,-0.014691315076571872,0.17525386633971352,junk
9635,0.4581320472729712,0.5183761052824731,0.5775560243588593,0.014781947151610592,-0.021825725488611596,0.16577394296750225,junk
9646,0.45076967687690106,0.5146550186263081,0.5844414545020503,0.017888009071363762,-0.01876812818285207,0.16766995249297703,junk
9657,0.4445661099282505,0.5154819267721226,0.58948851427122,0.00608498191865083,0.017923139677867215,0.18283781125024062,junk
9668,0.44262947950927567,0.5192030134282876,0.5929302894806611,-0.0007483522692188698,0.04238396821974591,0.18473378971192472,junk
9679,0.44650591515119087,0.528305780967868,0.5927009631149854,-0.006339255582425458,0.059710403048185715,0.18283781125024062,junk
9691,0.45348095946346595,0.5336840728834725,0.5901764933682463,-0.00944531750217863,0.06276800035394524,0.1790458543268724,junk
9702,0.4651070915852463,0.5378186136125447,0.5853587599647524,-0.007581676279152166,0.05461439083998568,0.17146190941634523,junk
9713,0.4651070915852463,0.5316134135511257,0.5777872304488436,-0.0019907729659455766,0.04544158222410627,0.16198198604413402,junk
9724,0.46123383074729657,0.5146550186263081,0.570672473939977,0.0029789199988976577,0.03524955780770619,0.15819002912076577,junk
9735,0.4577447211891762,0.49810668880658715,0.5711330063956369,0.005463771570287476,0.02607674919182678,0.15819002912076577,junk
9747,0.454255611631056,0.48321217527849497,0.5773266979931839,0.0029789199988976577,0.0199615378817069,0.16198198604413402,junk
9758,0.4515443290444911,0.4749397048525398,0.5803098204712741,-0.022490765351618272,0.03117276140002682,0.1790458543268724,junk
9769,0.45270630729587596,0.48238526713268054,0.5780165568145192,-0.036157423549421266,0.03830717181206654,0.188525746635293,junk
9780,0.45309363337967096,0.5018277754627521,0.5731969436867164,-0.04050590616590115,0.044422383122186423,0.1961096915458201,junk
9791,0.45231898121208114,0.5175491971366587,0.5603471483116538,-0.036157423549421266,0.04849917952986579,0.19800567000750421,junk
9803,0.44960452382155075,0.5034849807221917,0.5525462924300696,-0.02683924796809815,0.04849917952986579,0.19990164846918837,junk
9814,0.4480552194863707,0.48569628868374903,0.5495631699519794,-0.016278641512111926,0.044422383122186423,0.19990164846918837,junk
9825,0.445731262983601,0.46666384545877393,0.5491045172206285,-0.008824096975878874,0.03524955780770619,0.20558961491803135,junk
9836,0.43953087083891573,0.4554938075546575,0.548416538123602,-0.007581676279152166,0.0240383509879871,0.21317352876476783,junk
9848,0.4329399778064702,0.45921828317863317,0.5509391281460325,-0.013793800118658514,0.013846326571587018,0.22265345213697907,junk
9859,0.4279015639131699,0.4736993426338181,0.5557587412738352,-0.02932408936155157,0.010788729265827498,0.23782131089424266,junk
9870,0.4267395856617849,0.4943822131826114,0.5592005164832763,-0.02746045831646151,0.016903940575947376,0.2435092773430857,junk
9881,0.4306160213037003,0.5125843592939614,0.5626422916927175,-0.019384703431865102,0.02199993608554658,0.24730123426645392,junk
9892,0.4368164134483854,0.510103634856518,0.5819169847553112,-0.010687738198905339,0.0240383509879871,0.24730123426645392,junk
9904,0.4372037395321804,0.5026546836085666,0.5993551871681921,-0.005096834885698749,0.02301915188606726,0.2510931911898222,flick
9915,0.43875304386736025,0.4943822131826114,0.6179419011337595,-0.0038544040110356395,0.02199993608554658,0.25298916965150625,flick
9926,0.44689324123498586,0.47990454269523714,0.6365286150993268,-0.0044756143593989925,0.02505755008990694,0.2510931911898222,flick
9937,0.46782154897577666,0.4612855535431693,0.6631455113121536,-0.008824096975878874,0.029134346497586304,0.24730123426645392,flick
9949,0.505801728815443,0.4459809749099806,0.7042174874597718,-0.029945309887851327,0.013846326571587018,0.2643650714854016,flick
9960,0.5519189312187694,0.43357057478714256,0.756304648057048,-0.03802106477244774,-0.002460892456332107,0.2947008200637195,flick
9971,0.5984234597058911,0.41660879089451425,0.8198656458353341,-0.043611968085654325,-0.016729713280411552,0.3402043963355103,flick
9982,0.6395054230198827,0.3884769690977695,0.8990283553767884,-0.051066512621887376,-0.01978732728477191,0.4027718408900395,flick
9994,0.6708978846310689,0.32931914699392956,1.074335203865536,-0.059142267506483784,-0.0055185064606924645,0.4786111968039388,flick
10005,0.6860099515070041,0.3231139469325105,1.1642818917666649,-0.0672180223910802,0.030153562298106982,0.562034435500784,flick
10016,0.6871751045623545,0.3231139469325105,1.2549184384891285,-0.0752937772756766,0.08824804469634459,0.6302898465041562,flick
10027,0.651131555141663,0.299533508905556,1.3375229232400243,-0.08833922512511626,0.1708033890336626,0.6814813892247898,flick
10039,0.5840860449975458,0.2668503033390211,1.4059016544218041,-0.10573316576897217,0.2859731714268188,0.7364649199325827,flick
10050,0.5154880557142831,0.2668503033390211,1.4641843863409365,-0.12933920989646164,0.6722506329704887,0.9222712440706954,flick
10061,0.4666595707243918,0.2862962006369035,1.5137470771914738,-0.14549071966565447,0.9453966268318379,1.0284462864353312,flick
10072,0.45541758988244085,0.2937417629170441,1.5422004640540135,-0.17717252885567675,1.2236387497915928,1.1023896638875466,flick
10084,0.5205264696075833,0.35910478508230315,1.5449542601664281,-0.230596740950162,1.4621318239002599,1.1232454580298623,flick
10095,0.5484298216606492,0.4430834074318194,1.5522964633166612,-0.29582400055323305,1.6455881465052553,1.1004936543620716,flick
10106,0.5503696268835896,0.5270654187491463,1.555050259429076,-0.3548391464947341,1.7933723836528508,1.0625739919370174,flick
10118,0.5185898391886085,0.5659504354092895,1.5302679741416527,-0.3995664137121325,1.9431950357028864,1.0246543295119632,flick
10129,0.4705328315623416,0.5436103596010566,1.4694626522000902,-0.43497545445852565,2.1276705407112013,0.9772547437146974,flick
10141,0.425190281326605,0.4670772995316811,1.3813505752243653,-0.5002027038836603,2.6077146870007146,0.8274721346037456,flick
10152,0.3879847536545286,0.3872366068790479,1.2808473556049291,-0.5293996716802292,2.8828988953812944,0.8009283740125865,flick
10163,0.3771332737003381,0.4004739151477005,1.1691015048944677,-0.541202698832942,3.1621601506485657,0.8350560484504821,flick
10175,0.4666595707243918,0.6900578256054811,0.9059119057956707,-0.5157330033044897,3.421037390480239,0.8995194404029047,flick
10186,0.5515316051349747,0.8187165995714631,0.7670905061410312,-0.4424299989947587,3.639146566043513,0.9374391028279591,flick
10197,0.6387307708522928,0.8646371134066505,0.6211543499775253,-0.34738461213643745,3.7971228276075086,0.9146872991601683,flick
10209,0.6918230175678943,0.8518132592109053,0.45594350075142537,-0.2610361294434576,3.9031198013847854,0.8426399933610091,flick
10220,0.7108146948897103,0.8116844913642296,0.2668695514249134,-0.1982937417676492,3.984655929921583,0.7686966469725846,flick
10232,0.725929936569611,0.7847930317862066,0.07458315325463567,-0.16288465013157397,4.129382586462019,0.7061291713542649,flick
10243,0.7774728789500326,0.8013413616059276,-0.09039648988147993,-0.16599071205132718,4.159958626314018,0.7326729630092144,flick
10254,0.8511061073226303,0.8360918375369987,-0.2198117490948067,-0.1746876772842869,4.140593793281738,0.806616309397639,flick
10266,1.013103654467896,0.8592588214910459,-0.45477728769673953,-0.19705132107092246,4.077403298675301,0.8995194404029047,flick
10277,1.0832477732823733,0.7918285289612508,-0.5770777904011999,-0.24488461967426478,3.971406308199423,0.9601909064957498,flick
10288,1.1634718946874163,0.726878960868899,-0.7030512744050857,-0.31570278259054235,3.8185260588436276,0.9469190262001703,flick
10300,1.2278061222449685,0.7198434636938548,-0.8242051452811687,-0.3908694484791727,3.621820131215073,0.8786636151967981,flick
10311,1.2572587786332143,0.7368052475864831,-0.9132345277195953,-0.5250511788858128,3.2121010402314445,0.7686966469725846,flick
10322,1.2599700612197793,0.7665908856748567,-0.9761075464008551,-0.5641875326120682,3.066355201287689,0.7649046900492164,flick
10334,1.2599700612197793,0.8675346808848118,-1.0346196046856628,-0.5716420771483012,2.9654542230200116,0.7895524721786912,flick
10345,1.2995027201985911,1.0255622498984494,-1.0885413762083431,-0.5387178472615523,2.894110102201013,0.8198881896932184,flick
10357,1.4428959161058366,1.2427510299837377,-1.176653453184068,-0.4672784739969113,2.834996404002255,0.8274721346037456,flick
10368,1.5467564530342697,1.2961171060990657,-1.2142855338465532,-0.3772027801034332,2.773844307599657,0.8179922112315343,flick
10379,1.6428704682868032,1.3358324198728344,-1.2565060215468575,-0.28339976305215675,2.699442839953912,0.814200254308166,flick
10390,1.7238692418594364,1.3676887172935546,-1.2939068961193587,-0.20264222438412907,2.6128106825103137,0.8047203309359549,flick
10402,1.7819999024683382,1.3515538415467407,-1.3285558543037541,-0.19208162810607923,2.4120279584740802,0.7383608983942668,flick
10413,1.82463117011751,1.3072871440031824,-1.3641202382265427,-0.2467482507193548,2.301954171590523,0.6814813892247898,flick
10425,1.8711356986046312,1.2932229275887153,-1.3944101157387951,-0.29582400055323305,2.1949379820127253,0.6094340212980495,flick
10436,1.9889526737655456,1.351967295619648,-1.4478732345301244,-0.3262633788685922,2.097094500859203,0.5241148041395203,flick
10447,2.050959770016363,1.3900254041339768,-1.4717363346305368,-0.3448997605650477,2.014539156521885,0.4312116110066732,flick
10459,2.0966896463358946,1.4347055557504425,-1.4956013144552578,-0.34986945352989085,1.9472718488091667,0.35916424307993283,flick
10470,2.1273074557794907,1.486831269647049,-1.5247426804148239,-0.33558156462785177,1.8932541461200079,0.3231405591165626,flick
10481,2.158696742586711,1.513719340257261,-1.5699462905932182,-0.30389975543782943,1.8484092854439298,0.3117646572826672,flick
10492,2.2187672084185532,1.5182707240270514,-1.6298343070720789,-0.2100967689203621,1.7240666777362932,0.27384499485761293,flick
10504,2.316043201922472,1.508754502414564,-1.68467526378177,-0.16723313274805385,1.6038008664363361,0.2435092773430857,flick
10515,2.419519587571076,1.459939810069026,-1.7406628523198382,-0.13989980617451145,1.438690194460301,0.22265345213697907,flick
10526,2.513693797600669,1.3908523122797913,-1.8076637455832567,-0.13058163059318834,1.232811575106073,0.19990164846918837,flick
10537,2.6001183111503976,1.3668584201799294,-1.9015127411494863,-0.129960420244825,1.0096063372387962,0.1733578878780294,flick
10549,2.595079897257097,1.4260162422837694,-1.9285882900936644,-0.12312708605695528,0.8016891860919219,0.1543980411336069,flick
10560,2.594692571173302,1.488485085938678,-1.9425865970214131,-0.09703620053601242,0.6223097433876097,0.16766995249297703,flick
