timestamp,ax,ay,az,gx,gy,gz,label
78,-0.1464458718834004,0.5051387970138206,0.4671880115667595,-0.0212483446548915,0.3104340166672983,0.3781240898243552,3
90,-0.116602714607394,0.5287192350407751,0.4692519488578388,-0.017521072386775,0.3083956017648578,0.3838120252094076,3
101,-0.0918011460286534,0.5489886515166612,0.4853141930766669,-0.0088240969758788,0.296165179144618,0.3800200372222487,3
112,-0.0774605565163427,0.5597452353478704,0.5036715806765589,0.0135395264548838,0.2594739279824996,0.3477883412460374,3
123,-0.0697108600364776,0.5527131271406369,0.5126209481108291,0.0191304297680904,0.24622430626034,0.3212445806548785,3
135,-0.0642851200593825,0.5398892729448915,0.5146848854019086,0.0203728606427535,0.2319554687376597,0.2947008200637195,3
146,-0.0468459218767119,0.5473348352250322,0.5224876210078016,0.0203728606427535,0.2176866479135802,0.2643650714854016,3
157,-0.027079592387306,0.5626428028260316,0.5270760280456201,0.022857702036207,0.2023986446861818,0.2302373970475062,3
168,-0.0003382185856249,0.5762935651675914,0.5314351087177631,0.0290698258757133,0.185072209857742,0.1866297681736088,3
180,0.0256253282445005,0.5692614569603579,0.536254721845566,0.03652436023401,0.1646881777235427,0.1430221703635021,3
191,0.0434550273149316,0.5427834514552422,0.548416538123602,0.0414940633767896,0.1402273324830631,0.1013105199512889,3
202,0.0550811594367119,0.5225140349793561,0.5683792102832221,0.0296910362240767,0.1045552804228645,0.0444310418456027,3
213,0.0725203576193825,0.5183761052824731,0.5865053917931298,0.0203728606427535,0.1055744795247844,0.0368470969350756,3
224,0.0992617314210635,0.5179626512095659,0.5956840855930756,0.0135395264548838,0.1065936786267042,0.0273671735628644,3
236,0.1256157791389495,0.5092767267107036,0.601191677817905,0.0060849819186508,0.0974208700108248,0.0065113794205484,3
247,0.1415056729864402,0.4939687591097041,0.6209250236118496,-0.0026119833143089,0.0780560369785453,-0.0257203476194535,3
258,0.1407278460148847,0.499760505098216,0.6298743910461201,-0.0113089485472686,0.0556335899419055,-0.0579520746594554,3
269,0.136854585176935,0.4947956672555186,0.6381338996590552,-0.0181422827351383,0.0342303587057863,-0.0807038783272462,3
280,0.1294890399768993,0.4716286833014713,0.6505250423027669,-0.0224907653516182,0.0158847247754266,-0.093975727559035,3
292,0.1198027130780593,0.4430834074318194,0.6668166128872705,-0.0293240893615515,0.0046735179557076,-0.0920797490973509,3
303,0.1066241018171336,0.4178491531132359,0.6789784291653064,-0.0560362055867306,0.0281151473956664,-0.0693279764933508,3
314,0.0880229253830781,0.3930283528675597,0.6803543873593593,-0.0721877153559234,0.057672004844346,-0.0617440315828237,3
326,0.0732950097869724,0.371101731132234,0.6711756935594134,-0.0846119528569997,0.0862096464925049,-0.0465761728255601,3
337,0.0566304637718918,0.3384219145335099,0.6486885516530542,-0.090824076696506,0.1055744795247844,-0.0219283906960852,3
348,0.053919181185327,0.3338705307637197,0.6466246143619747,-0.0939301284383228,0.1137280890387439,0.0084073578822325,3
359,0.0663199654746973,0.3346974389095342,0.6477712461903521,-0.0957937696613493,0.1116896908349042,0.0444310418456027,3
371,0.0794954019316576,0.3392488226793244,0.6466246143619747,-0.0976574108843757,0.0994592682146645,0.0709748024367617,3
382,0.0907342079696429,0.3524861309479769,0.6424929803311982,-0.1020058935008556,0.080094435182385,0.0804546947451823,3
393,0.1011983618400383,0.3777203852665604,0.6390512051217573,-0.1131877103052052,0.0535951917380658,0.0956225845662366,3
404,0.1081734061523135,0.3967494395237247,0.6337748189869122,-0.1175361827437487,0.0546143908399856,0.1202703666957114,3
416,0.1128244939618187,0.4041983907716761,0.6259720833810193,-0.118157393092112,0.0607296021501055,0.1449181488251862,3
427,0.1105005374590489,0.419916423477772,0.6216130027088761,-0.1138089206535685,0.0709216265665056,0.1657739429675022,3
438,0.1205773652456493,0.4865231968295634,0.6257427570153437,-0.1007634728041289,0.0841712482886652,0.1866297681736088,3
449,0.1287143878093093,0.5179626512095659,0.6296431849561358,-0.0821271012856099,0.0994592682146645,0.2017976269308724,3
461,0.1380165634283198,0.5340975269563798,0.6303330437774711,-0.0628695397746003,0.1106704917329844,0.2093815718413995,3
472,0.1457662599081849,0.532026867624033,0.6266619422023545,-0.0473392403537708,0.118824101246944,0.2093815718413995,3
483,0.1539064572758105,0.5340975269563798,0.6234494933585888,-0.0349150028526945,0.1229009143532242,0.2093815718413995,3
495,0.1554557616109903,0.554780397505173,0.6259720833810193,-0.0137938001186585,0.1106704917329844,0.188525746635293,3
506,0.15196665205287,0.5829122193019177,0.6317090019715239,-0.0094453175021786,0.1065936786267042,0.1714619094163452,3
517,0.1511919998852801,0.6060792032559651,0.6376752469277043,-0.0063392555824254,0.1086320768305439,0.1525020626719228,3
528,0.1302636921444892,0.630486549428734,0.6294138585904602,-0.0038544040110356,0.1178049021450241,0.1335422469912909,3
540,0.124450626083599,0.6428969495515722,0.6149587786556694,0.0011152889538075,0.1330929220710234,0.1164783787085525,3
551,0.1333654756188146,0.6557241927151282,0.6032556151089844,0.009191043838404,0.1524577551033029,0.1069984864001319,3
562,0.1473187390473304,0.6515862630182453,0.6000431662652186,0.016645588374637,0.1748801854413419,0.0994145414896048,3
573,0.1612688276718805,0.6333841169068952,0.601191677817905,0.022857702036207,0.1983218315799016,0.0823506732068664,3
585,0.1814224832450815,0.6155954248684525,0.6044041266616706,0.0116758852318574,0.2360322818439399,0.0292631830883391,3
596,0.2023507909858723,0.59780673283001,0.6092218600651647,-0.0019907729659455,0.2472435053622598,0.0084073578822325,3
607,0.2132022709400627,0.5775339273863132,0.6105996979835263,-0.0131725897702951,0.2482627044641797,-0.012448467323874,3
618,0.2294763160673827,0.565123527263475,0.6078459018711116,-0.0137938001186585,0.2339938836401002,-0.0427842159021918,3
630,0.2453662099148734,0.5353378891751014,0.6154174313870203,-0.0162786415121119,0.2023986446861818,-0.0901837706356668,3
641,0.2519571029473191,0.5001739591711233,0.6273499212993809,-0.0349150028526945,0.1585729664134228,-0.1603351601007231,3
652,0.2558303637852688,0.4708017751556568,0.6383632260247306,-0.0622483294262369,0.107612877728624,-0.2285905400403046,3
663,0.2511792759757636,0.4530130831172141,0.6436414918838845,-0.0870968044283895,0.057672004844346,-0.2759901569013608,3
675,0.2411056229931286,0.4480482452745167,0.6390512051217573,-0.1051119554206088,0.018942338779787,-0.3063259054796787,3
686,0.2321907734579132,0.4633562128755161,0.6262014097466947,-0.1119452794305421,-0.0085761037664519,-0.3139098193264152,3
697,0.2225012717551077,0.4931418509638897,0.6099098391621911,-0.0945513489646225,0.0016159039513472,-0.2892620371969404,3
708,0.2143642491914477,0.5154819267721226,0.5945374537646982,-0.0672180223910802,0.0199615378817069,-0.2513423437080954,3
720,0.2046747474886422,0.4923149428180752,0.5722796382240143,-0.0398846958175378,0.0403455700159062,-0.2077347458979886,3
731,0.2058367257400271,0.4629427588026089,0.5725089645896897,-0.0218695550032549,0.0556335899419055,-0.1679190739474595,3
742,0.2011856379305218,0.4339840288600497,0.5796218413742474,-0.0187634930835017,0.0617488012520253,-0.1337913684457735,3
753,0.1992490075115469,0.4178491531132359,0.5892591879055443,-0.0336725821559678,0.0556335899419055,-0.1110395958417734,3
765,0.2031254431534622,0.4298460991631668,0.6005036987208785,-0.0616271190778736,0.0423839682197459,-0.0920797490973509,3
776,0.2089385092143524,0.4670772995316811,0.6124343089089302,-0.1150513413502953,0.0036543188537877,-0.0389922589788236,3
787,0.2147515752752426,0.5229274890522634,0.6232182872686045,-0.1206422446635018,-0.0085761037664519,-0.006760500875031,3
798,0.2194026630847479,0.585809786780079,0.6307916965088222,-0.1107028587338154,-0.0106145186688925,0.0254711951011803,3
810,0.2217266195875177,0.6375186576359675,0.6362974090093425,-0.0870968044283895,-0.0004224942524924,0.0577029221411822,3
821,0.227152359564613,0.6751667010451998,0.6335454926212366,-0.0535513540153407,0.0260767491918267,0.0918305965790777,3
832,0.2318034473741182,0.6689615009837807,0.6353801035466405,-0.0162786415121119,0.0648064152563857,0.1335422469912909,3
843,0.2321907734579132,0.6569645549338499,0.6420343275998472,0.0191304297680904,0.1127088899368241,0.1847337897119247,3
855,0.2232759239226976,0.6441407007381045,0.6411170221371454,0.0433576944218797,0.1667265759273823,0.2340293539708744,3
866,0.2085511831305575,0.6135247655361058,0.6335454926212366,0.0532970905295025,0.2187058470155001,0.2605731145620334,3
877,0.1965345501210166,0.5775339273863132,0.6218423290745517,0.0222364916878436,0.2798579601166989,0.2643650714854016,3
888,0.1957598979534267,0.5605721434936848,0.6066973903184255,-0.0075816762791521,0.3012611913528181,0.2700530379342446,3
900,0.1992490075115469,0.5729825436165229,0.5885712088085179,-0.0330513616296681,0.3226644392875381,0.28142893976814,3
911,0.2178501839456024,0.6515862630182453,0.5461213947425383,-0.044854388782381,0.3410100732178978,0.3003887554487719,3
922,0.2380038395188034,0.6913015767920135,0.5240929055675301,-0.0373998544240843,0.3573173089444177,0.3250365375782467,3
933,0.2643578872366893,0.714051717705343,0.5000004791014421,-0.0144150104670218,0.3736245279723368,0.342100405860985,3
945,0.306989154885861,0.726878960868899,0.4729230504329553,0.0135395264548838,0.3919701285054948,0.3383084178738261,3
956,0.3616307059366426,0.7306000475250639,0.4488306239668677,0.0377667911086731,0.4092965633339346,0.3060767218976148,3
967,0.4042619735858142,0.7061927013522951,0.4355221758604542,0.0532970905295025,0.3715861297684971,0.1809418327885565,3
978,0.4170500839589794,0.651172808945338,0.4401105828982728,0.0371455807603097,0.296165179144618,0.0956225845662366,3
990,0.4162754317913896,0.6007009113403604,0.4596146023265419,0.0085698334900406,0.1962834333760619,0.0103033363439166,3
1001,0.4162754317913896,0.5758801110946843,0.4791186217548113,-0.0231119756999816,0.0984400691127446,-0.0636400411082985,3
1012,0.4015506909992493,0.5767070192404987,0.5002298054671177,-0.0454755991307443,0.013846326571587,-0.1243114761373529,3
1024,0.3868227754031436,0.5671907976280112,0.5142262326705576,-0.0510665126218873,-0.0554593793449705,-0.1679190739474595,3
1035,0.3647324894109679,0.5460944730063106,0.5355667427485397,-0.0398846958175378,-0.1135538951404098,-0.1982548225257774,3
1046,0.3310160712970117,0.5067926133054494,0.5592005164832763,-0.0187634930835017,-0.1594179549184076,-0.2096307243596728,3
1057,0.2856735210612753,0.4397757748485616,0.5773266979931839,0.0004940786054442,-0.1869363974646467,-0.2058387363725139,3
1069,0.2391658177701882,0.3698613689135124,0.5915543312866081,-0.0150362208153852,-0.1624755522241672,-0.1603351601007231,3
1080,0.2011856379305218,0.336351255201163,0.6099098391621911,-0.0467180300054074,-0.124765085261528,-0.1186235096885098,3
1091,0.1748347650166014,0.3446271145949289,0.6305623701431465,-0.0746725669273132,-0.0911314481037699,-0.0674319980316667,3
1102,0.136854585176935,0.4286057369444452,0.6702583880967113,-0.0895816458218429,-0.0697282001690499,-0.0200324122344011,3
1114,0.115926277436144,0.475353158925447,0.6881552432409436,-0.0914452870448694,-0.052401782039211,0.0027193914333895,3
1125,0.0984870792534735,0.5171357430637514,0.698711774959251,-0.0846119528569997,-0.0330369490069315,0.0008234129717054,3
1136,0.0841464897411628,0.5473348352250322,0.7021535501686923,-0.07156650500756,-0.0065377055626123,-0.0143444457855581,3
1147,0.0729076837031774,0.5655369813363823,0.7012343649816816,-0.0516877229702507,0.0291343464975863,-0.0238243691577693,3
1159,0.0686439219774672,0.5787742896050347,0.6957286524811608,-0.0013695626175822,0.1351313202748631,-0.0143444457855581,3
1170,0.0705837272004076,0.5845660355935466,0.6856326532185133,0.0154031574999739,0.1891490229640222,0.0046154009588643,3
1181,0.0775587715126827,0.5870501489988007,0.6725535314777753,0.0216152813394802,0.2288978714319002,0.0273671735628644,3
1192,0.0957726218629432,0.5990470950487315,0.6594744097370373,0.0203728606427535,0.2523395175704598,0.048222998768971,3
1204,0.1542937833596055,0.6375186576359675,0.6211543499775253,0.0135395264548838,0.2676275374964592,0.0690787929112869,3
1215,0.179095351938346,0.6528266252369669,0.5963720646901021,0.0017364993021709,0.2747619479084989,0.0823506732068664,3
1226,0.2042874214048472,0.667304295724341,0.5743454552394025,-0.0137938001186585,0.2717043506027393,0.0861426611940253,3
1237,0.2302541430389383,0.6892309174596668,0.5610351274086801,-0.0305665202362146,0.2564163139781392,0.0842466827323412,3
1249,0.2515666020595586,0.7181896474022259,0.5564467203708617,-0.0442331784340176,0.2339938836401002,0.0861426611940253,3
1260,0.2639705611528944,0.7359783394406686,0.5534635978927717,-0.0485816610504975,0.1606113646172625,0.1069984864001319,3
1271,0.2670691698232543,0.7297731393792496,0.5502511490490058,-0.0392634854691744,0.1208624994507836,0.1183743882340273,3
1282,0.2585448211757992,0.7057792472793878,0.5500218226833304,-0.0262180376197348,0.0923248578026248,0.1335422469912909,3
1294,0.2163008796104225,0.6383489547495926,0.5548414358111333,-0.0131725897702951,0.0780560369785453,0.1581900291207657,3
1305,0.1934359414506568,0.5903577815820584,0.5504804754146815,-0.0038544040110356,0.0739792238722651,0.1828378112502406,3
1316,0.1670818937327707,0.5278923268949607,0.5396964970550072,-0.0038544040110356,0.0790752360804652,0.1999016484691883,3
1327,0.1473187390473304,0.4761800670712615,0.5257000698515671,-0.0187634930835017,0.0892672437982644,0.2150695072264519,3
1339,0.14537893382439,0.4559106505953754,0.5123916217451537,-0.0479604507021342,0.0984400691127446,0.2302373970475062,3
1350,0.1554557616109903,0.4666638454587739,0.5016057636611706,-0.1069755864656988,0.0953824551083843,0.3022847339104559,3
1361,0.171345655458481,0.5038984347950989,0.4917390907641983,-0.1131877103052052,0.0882480446963445,0.3534763076948804,3
1372,0.1926612892830668,0.5572645109104271,0.480496459673173,-0.0951725593129859,0.080094435182385,0.4008758624283554,3
1384,0.2267650334808179,0.6160088789413598,0.4699418076791741,-0.0541725745416405,0.0719408256684254,0.4387955248534097,3
1395,0.3286889399902764,0.6975067768534327,0.4740715619856416,0.0029789199988976,0.0607296021501055,0.4577553715978322,3
1406,0.3693835772204731,0.6966764797398075,0.4933462550482353,0.063236476459189,0.0372879727101467,0.4520674051489891,3
1417,0.3937978197154187,0.6565511008609426,0.5199631512610624,0.1141758573381573,-0.0044993073587726,0.4274196230195143,3
1429,0.3953502988545642,0.5866366949258934,0.5458920683768629,0.1433728149567897,-0.0513825829372911,0.38949996059446,3
1440,0.3794604050070737,0.5084464295970784,0.5683792102832221,0.1439940253051531,-0.0901122490018501,0.3553722861565646,3
1451,0.3534936833729824,0.4422564992860048,0.5929302894806611,0.0706910311733585,-0.1298610974697281,0.3136606357443513,3
1462,0.3236537009009416,0.3996470070018859,0.6184005538651105,0.0160243780262737,-0.1237458861596082,0.2984927769870877,3
1474,0.2953598479601152,0.3888904231706768,0.6397410639430924,-0.0380210647724477,-0.1003042567196493,0.2871168751531924,3
1485,0.2612561037623641,0.4637696669484233,0.6681925710813232,-0.0802634702405198,-0.0687090010671301,0.275740973319297,3
1496,0.2511792759757636,0.5113439970752397,0.6730121842091261,-0.1007634728041289,-0.0401713594189712,0.2643650714854016,3
1507,0.2395531438539832,0.5444406567146818,0.6730121842091261,-0.0982786212327391,-0.0146913150765718,0.249197212728138,3
1519,0.2248284030618431,0.5580914190562415,0.6711756935594134,-0.0802634702405198,0.0097695134653068,0.2397172893559268,3
1530,0.2077765309629675,0.5601586894207776,0.6741588160375035,-0.0572786364613937,0.0301535622981069,0.2359253324325585,3
1541,0.1942105936182468,0.5618158946802172,0.6812716928220612,-0.0243543963967083,0.0627680003539452,0.2416132988814015,3
1552,0.1907214840601264,0.5630562568989389,0.6810423664563858,-0.0231119756999816,0.085190447390585,0.2397172893559268,3
1564,0.1934359414506568,0.5762935651675914,0.6695704089996851,-0.0274604583164615,0.107612877728624,0.2340293539708744,3
1575,0.2015729640143168,0.6085599276934084,0.653508164780857,-0.0293240893615515,0.123920113455144,0.222653452136979,3
1586,0.2283143378159979,0.687990555240945,0.6294138585904602,-0.0249756067450716,0.1330929220710234,0.2131735287647678,3
1597,0.2364545351836234,0.7123979014137141,0.6245961251869662,-0.011930158895632,0.1330929220710234,0.2055896149180313,3
1608,0.2403277960215732,0.7223275770991089,0.6202370445148232,0.009191043838404,0.1249393125570638,0.1999016484691883,3
1620,0.2372291873512133,0.7103306310491779,0.6145001259243184,0.0346607291889199,0.1127088899368241,0.1904217250969771,3
1631,0.2283143378159979,0.6793046307420827,0.6076165755054362,0.0595092041910725,0.1045552804228645,0.1790458543268724,3
1642,0.2201773152523378,0.6433104036244793,0.6009623514522295,0.0849788997195248,0.1055744795247844,0.1657739429675022,3
1653,0.2166882056942174,0.6131113114631985,0.5945374537646982,0.0781455655316551,0.1116896908349042,0.161981986044134,3
1665,0.2213392935037228,0.592014986841498,0.5862760654274541,0.0613728454140989,0.1157665039411844,0.1581900291207657,3
1676,0.2325780995417081,0.5746397488759626,0.5812290056582847,0.0377667911086731,0.1116896908349042,0.1543980411336069,3
1687,0.2492426455567887,0.5601586894207776,0.5931596158463365,0.0122971057581571,0.0994592682146645,0.1562940506590816,3
1698,0.2488553194729937,0.5688480028874506,0.5984378817054904,-0.0088240969758788,0.085190447390585,0.161981986044134,3
1710,0.2426549273283086,0.5829122193019177,0.5977499026084637,-0.0212483446548915,0.0749984229741849,0.1733578878780294,3
1721,0.2360672090998285,0.5862232408529863,0.5936182685776875,-0.0212483446548915,0.0729600247703453,0.1866297681736088,3
1732,0.2310287952065282,0.5746397488759626,0.5890298615398689,-0.0001271317429191,0.0841712482886652,0.2055896149180313,3
1743,0.227152359564613,0.5564376027646126,0.5867347181588052,0.011054674883494,0.0862096464925049,0.2188614952136108,3
1755,0.2244410769780481,0.5403027270177988,0.5860467390617787,0.0185092194197271,0.0831520491867453,0.2321333755091903,3
1766,0.2252157291456381,0.5299595972594968,0.5826049638523376,0.0203728606427535,0.0770368378766255,0.2435092773430857,3
1777,0.2213392935037228,0.5146550186263081,0.570672473939977,0.0141607368032472,0.0709216265665056,0.2473012342664539,3
1788,0.2190153370009529,0.5311999594782185,0.5672306987305361,0.0017364993021709,0.0668448134602254,0.2510931911898222,3
1800,0.2186248361131924,0.5597452353478704,0.5690671893802488,-0.0094453175021786,0.0617488012520253,0.2567811576386651,3
1811,0.2190153370009529,0.5804314948644743,0.5759507397991309,-0.0137938001186585,0.0525759926361459,0.2662610499470857,3
1822,0.2163008796104225,0.5837391274477322,0.5809996792926092,-0.0094453175021786,0.0403455700159062,0.2738449948576129,3
1833,0.2124244439685072,0.5758801110946843,0.5766387188961573,0.0036001405251974,0.0393263709139863,0.275740973319297,3
1845,0.2143642491914477,0.571328727324894,0.5695258421115996,0.0079486231416772,0.0434031840202665,0.275740973319297,3
1856,0.2248284030618431,0.5733993866572409,0.5672306987305361,0.0116758852318574,0.041364769117826,0.2795329613064559,3
1867,0.2414929490769236,0.575466657021777,0.5688378630145732,0.0135395264548838,0.0311727614000268,0.2871168751531924,3
1878,0.253119081198704,0.5613990516394993,0.5814583320239601,0.0122971057581571,0.0169039405759473,0.2909088631403512,3
1890,0.2496299716405837,0.5460944730063106,0.5858174126961033,0.0042213508735607,0.0056927170576274,0.2890128536148765,3
1901,0.2476933412216088,0.5444406567146818,0.5881125560771668,-0.0106877381989053,-0.0014416933544122,0.28142893976814,3
1912,0.2492426455567887,0.5605721434936848,0.5943081273990228,-0.0268392479680981,-0.0065377055626123,0.2776369517809811,3
1924,0.2465313629702239,0.5862232408529863,0.6048627793930215,-0.0336725821559678,-0.0055185064606924,0.2909088631403512,3
1935,0.2414929490769236,0.6048388410372434,0.6124343089089302,-0.0262180376197348,0.0067119161595473,0.2947008200637195,3
1946,0.2418802751607187,0.6081464736205012,0.6149587786556694,-0.0200059137802284,0.0199615378817069,0.2890128536148765,3
1957,0.2488553194729937,0.6060792032559651,0.614729452289994,-0.0162786415121119,0.0291343464975863,0.275740973319297,3
1969,0.2631959089853045,0.6288327331371052,0.6204663708804986,-0.0137938001186585,0.0352495578077061,0.2567811576386651,3
1980,0.2666818437394592,0.6350379331985241,0.6186298802307859,-0.0094453175021786,0.0393263709139863,0.2359253324325585,3
1991,0.2705582793813745,0.6395893169683144,0.6110583507148774,-0.0057180452340621,0.0434031840202665,0.2188614952136108,3
2002,0.2771459976098546,0.647034879248455,0.6044041266616706,-0.0013695626175822,0.0454415822241062,0.2036936053925566,3
2014,0.2879974775640451,0.6462079711026406,0.6016503305492559,0.0036001405251974,0.0444223831221864,0.1904217250969771,3
2025,0.2961376749316707,0.6280058249912907,0.5995845135338678,0.0135395264548838,0.0454415822241062,0.167669952492977,3
2036,0.2949725218763202,0.5965629816434775,0.5961427383244267,0.0085698334900406,0.0474799804279459,0.1543980411336069,3
2047,0.2876101514802501,0.5717421813978013,0.5927009631149854,-0.0013695626175822,0.0484991795298657,0.1449181488251862,3
2059,0.2728822358841444,0.5680210947416363,0.5874245769801405,-0.0113089485472686,0.0505375944323063,0.1449181488251862,3
2070,0.2659071915718693,0.565123527263475,0.5832929429493641,-0.0144150104670218,0.0546143908399856,0.1506060842102386,3
2081,0.262030755929954,0.5527131271406369,0.5770973716275083,-0.0094453175021786,0.0586912039462658,0.1543980411336069,3
2093,0.2604814515947741,0.5382354566532627,0.5754920870677799,-0.0007483522692188,0.0607296021501055,0.1562940506590816,3
2104,0.2562176898690638,0.5237543971980778,0.5805391468369495,0.0060849819186508,0.0607296021501055,0.1562940506590816,3
2115,0.2496299716405837,0.5051387970138206,0.584670780867726,0.0011152889538075,0.0627680003539452,0.1525020626719228,3
2126,0.2438169055796935,0.4902442834857284,0.5814583320239601,-0.0088240969758788,0.0627680003539452,0.1543980411336069,3
2138,0.2434295794958985,0.4931418509638897,0.5750334343364291,-0.0162786415121119,0.0556335899419055,0.161981986044134,3
2149,0.2473060151378138,0.513824721512683,0.5738849227837428,-0.0181422827351383,0.0434031840202665,0.1695659309546611,3
2160,0.253506407282499,0.5518862189948225,0.5821463111209866,-0.0131725897702951,0.0291343464975863,0.1714619094163452,3
2171,0.2457535359986684,0.5502324027031935,0.5874245769801405,-0.0044756143593989,0.0199615378817069,0.167669952492977,3
2183,0.2364545351836234,0.5394758188719844,0.5901764933682463,0.0029789199988976,0.0158847247754266,0.161981986044134,3
2194,0.2267650334808179,0.526651964676239,0.589947167002571,0.0060849819186508,0.0179231396778672,0.161981986044134,3
2205,0.2205646413361328,0.5216871268335417,0.59247163674931,0.0048425612219241,0.0179231396778672,0.167669952492977,3
2216,0.2201773152523378,0.5245813053438921,0.5991258608025168,-0.0044756143593989,0.018942338779787,0.1866297681736088,3
2228,0.2197899891685428,0.528305780967868,0.6050921057586971,-0.0100665278505419,0.0250575500899069,0.188525746635293,3
2239,0.2151389013590376,0.5311999594782185,0.6083045546024627,-0.017521072386775,0.0352495578077061,0.1866297681736088,3
2250,0.2112624657171223,0.5576779649833342,0.6002724926308942,-0.0249756067450716,0.0454415822241062,0.1904217250969771,3
2261,0.2155262274428326,0.5837391274477322,0.5949961064960492,-0.0262180376197348,0.0505375944323063,0.2055896149180313,3
2273,0.2236632500064926,0.6007009113403604,0.59247163674931,-0.0200059137802284,0.0495183786317856,0.2283413875220314,3
2284,0.233740077793093,0.6048388410372434,0.5913250049209327,-0.0082028866275155,0.0454415822241062,0.2510931911898222,3
2295,0.2407182969093337,0.6031850247456144,0.5890298615398689,0.0048425612219241,0.0434031840202665,0.2662610499470857,3
2306,0.2418802751607187,0.5949091653518486,0.5862760654274541,0.0160243780262737,0.0515567935342261,0.2643650714854016,3
2318,0.2395531438539832,0.5837391274477322,0.5844414545020503,0.0029789199988976,0.0597104030481857,0.2529891696515062,3
2329,0.2407182969093337,0.5779473814592203,0.5830636165836887,-0.0212483446548915,0.0688832116640651,0.2397172893559268,3
2340,0.2465313629702239,0.5837391274477322,0.5798511677399231,-0.0454755991307443,0.0760176220761048,0.2302373970475062,3
2352,0.2589321472595942,0.6296596412829196,0.576409392530482,-0.057899846809757,0.0770368378766255,0.222653452136979,3
2363,0.2600941255109791,0.6420700414057577,0.5805391468369495,-0.0529301436669774,0.0739792238722651,0.2112775503030837,3
2374,0.2585448211757992,0.6259351656589439,0.5830636165836887,-0.038642275120811,0.0699024107659849,0.1904217250969771,3
2385,0.2515666020595586,0.5878770571446151,0.5823756374866622,-0.0224907653516182,0.0658256143583055,0.1695659309546611,3
2397,0.2380038395188034,0.5535400352864513,0.5828342902180133,-0.0106877381989053,0.0637872161544659,0.1543980411336069,3
2408,0.2194026630847479,0.5299595972594968,0.5849001072334014,0.0042213508735607,0.0668448134602254,0.167669952492977,3
2419,0.2046747474886422,0.5084464295970784,0.5855880863304278,0.0079486231416772,0.0749984229741849,0.1809418327885565,3
2430,0.2004109857629319,0.4985201428794943,0.5839809220463906,0.0079486231416772,0.0831520491867453,0.188525746635293,3
2441,0.2081638570467625,0.5030715266492845,0.5839809220463906,0.0060849819186508,0.0872288455944247,0.1866297681736088,3
2453,0.2116497918009173,0.5047253429409133,0.5871933708901562,0.0036001405251974,0.0821328333862247,0.1866297681736088,3
2464,0.2058367257400271,0.505965705159635,0.58948851427122,0.0011152889538075,0.0709216265665056,0.1923177346224518,3
2475,0.1945979197020417,0.5080329755241711,0.5915543312866081,-0.0007483522692188,0.0546143908399856,0.2036936053925566,3
2486,0.1876228753897666,0.5187895593553804,0.5956840855930756,-0.0038544040110356,0.0372879727101467,0.2131735287647678,3
2498,0.1876228753897666,0.5394758188719844,0.5982085553398148,-0.011930158895632,0.0240383509879871,0.2150695072264519,3
2509,0.1922739631992719,0.554780397505173,0.5956840855930756,-0.0125513692439954,0.0250575500899069,0.2093815718413995,3
2520,0.1953725718696316,0.5572645109104271,0.5915543312866081,-0.0106877381989053,0.0260767491918267,0.2074855933797154,3
2531,0.1961472240372216,0.5560241486917055,0.5888005351741935,-0.0057180452340621,0.0311727614000268,0.2150695072264519,3
2543,0.2035127692372572,0.5750532029488697,0.5796218413742474,0.0036001405251974,0.0403455700159062,0.2245494305986632,3
2554,0.2205646413361328,0.583325673374825,0.5690671893802488,0.0154031574999739,0.0525759926361459,0.2321333755091903,3
2565,0.2434295794958985,0.5903577815820584,0.5587418637519252,0.0241001329108701,0.0566528057424261,0.2321333755091903,3
2576,0.2666818437394592,0.592014986841498,0.552775618795745,0.0265849743043235,0.0484991795298657,0.2283413875220314,3
2588,0.2876101514802501,0.5837391274477322,0.5500218226833304,0.0234789123845703,0.0291343464975863,0.2207574736752949,3
2599,0.2996236096858254,0.5738128407301482,0.5513977808773833,0.0067061922670141,-0.0065377055626123,0.2074855933797154,3
2610,0.3011729140210053,0.5680210947416363,0.5553000885424844,-0.0007483522692188,-0.013672115974652,0.2055896149180313,3
2622,0.2972996531830555,0.5626428028260316,0.5582832110205744,-0.0044756143593989,-0.0177489290809322,0.2074855933797154,3
2633,0.2841210419221298,0.5481617433708467,0.5734262700523918,-0.0044756143593989,-0.0218257254886115,0.2131735287647678,3
2644,0.2856735210612753,0.5365782513938231,0.583751595680715,-0.0044756143593989,-0.0269217376968116,0.2188614952136108,3
2655,0.2860608471450702,0.5249947594167994,0.5940788010333472,-0.0069604659307888,-0.0320177499050116,0.222653452136979,3
2667,0.2794731289165901,0.5233409431251705,0.6021089832806069,-0.0137938001186585,-0.0360945630112918,0.2245494305986632,3
2678,0.2678438219908442,0.5361647973209158,0.6094511864308401,-0.0231119756999816,-0.041190558520891,0.2283413875220314,3
2689,0.2562176898690638,0.5576779649833342,0.6170245956710577,-0.0411271165142645,-0.0574977775488102,0.2321333755091903,3
2700,0.2465313629702239,0.5779473814592203,0.622071655440227,-0.0454755991307443,-0.0656514037613706,0.2321333755091903,3
2712,0.2411056229931286,0.5924284409144053,0.6229889609029291,-0.0442331784340176,-0.0707473992709698,0.2321333755091903,3
2723,0.2418802751607187,0.6069061114017795,0.6271205949337053,-0.0380210647724477,-0.0697282001690499,0.2321333755091903,3
2734,0.2387784916863933,0.6309000035016413,0.6496077368400648,-0.0274604583164615,-0.0646322046594507,0.2283413875220314,3
2745,0.2302541430389383,0.622627533075686,0.6532788384151816,-0.017521072386775,-0.0544401802430506,0.222653452136979,3
2756,0.2190153370009529,0.6069061114017795,0.6530495120495058,-0.0125513692439954,-0.0422097576228109,0.2207574736752949,3
2768,0.2104878135495324,0.5986336409758244,0.6507543686684423,-0.0131725897702951,-0.0299793517011719,0.2112775503030837,3
2779,0.2066113779076171,0.5986336409758244,0.645705429174964,-0.0181422827351383,-0.0146913150765718,0.1961096915458201,3
2790,0.2042874214048472,0.6031850247456144,0.6379045732933798,-0.0231119756999816,0.0230191518860672,0.1733578878780294,3
2802,0.200023659679137,0.6048388410372434,0.6296431849561358,-0.0224907653516182,0.0403455700159062,0.1657739429675022,3
2813,0.1918866371154769,0.5957360734976631,0.6239081460899398,-0.0237331860483449,0.0525759926361459,0.1562940506590816,3
2824,0.1907214840601264,0.5878770571446151,0.622071655440227,-0.0280816686648248,0.0617488012520253,0.1487101057485545,3
2835,0.1899468318925365,0.6002874572674531,0.6188592065964615,-0.0342937925043312,0.0688832116640651,0.1449181488251862,3
2847,0.1849084179992362,0.6023547276319893,0.6087632073338136,-0.0367786338977846,0.0760176220761048,0.1430221703635021,3
2858,0.1821971354126714,0.5949091653518486,0.5998138398995432,-0.0336725821559678,0.0811136342843048,0.141126191901818,3
2869,0.1825844614964664,0.5887039652904296,0.5947667801303738,-0.0280816686648248,0.0872288455944247,0.1392301823763433,3
2880,0.1849084179992362,0.585809786780079,0.58948851427122,-0.0156574311637485,0.0984400691127446,0.1487101057485545,3
2892,0.1856862449707917,0.5820853111561033,0.5832929429493641,-0.0106877381989053,0.0964016542103041,0.1543980411336069,3
2903,0.1852957440830312,0.5812584030102889,0.5798511677399231,-0.0069604659307888,0.0892672437982644,0.1581900291207657,3
2914,0.1852957440830312,0.5870501489988007,0.5800804941055985,-0.0050968348856987,0.085190447390585,0.1581900291207657,3
2925,0.1818098093288764,0.5903577815820584,0.5770973716275083,-0.0038544040110356,0.0882480446963445,0.1562940506590816,3
2937,0.1794826780221411,0.5928418949873124,0.5734262700523918,-0.0007483522692188,0.0994592682146645,0.1562940506590816,3
2948,0.1810351571612865,0.5907712356549656,0.5667720459991851,0.0048425612219241,0.1127088899368241,0.1600860075824499,3
2959,0.1872355493059717,0.5903577815820584,0.5598884955803027,0.0135395264548838,0.1249393125570638,0.161981986044134,3
2970,0.1938232675344518,0.5903577815820584,0.5585125373862498,0.0241001329108701,0.1279969098628234,0.1600860075824499,3
2981,0.198474355343957,0.5783608355321276,0.5626422916927175,0.0296910362240767,0.0994592682146645,0.1392301823763433,3
2993,0.2023507909858723,0.5642966191176606,0.5702138212086262,0.0203728606427535,0.0719408256684254,0.1259583020807638,3
3004,0.198861681427752,0.5580914190562415,0.578933862277221,0.0060849819186508,0.0444223831221864,0.1164783787085525,3
3015,0.1736696119612509,0.5560241486917055,0.5915543312866081,-0.0044756143593989,0.0250575500899069,0.1183743882340273,3
3026,0.1601068494204957,0.5452675648604962,0.5961427383244267,-0.0069604659307888,0.0179231396778672,0.1297502900679226,3
3038,0.1535191311920155,0.5407161810907061,0.6032556151089844,-0.0032331936626722,0.0250575500899069,0.1449181488251862,3
3049,0.1562304137785804,0.5452675648604962,0.6115170034462282,0.0042213508735607,0.0423839682197459,0.161981986044134,3
3060,0.1666945676489758,0.5543669434322658,0.6131222880059566,0.0122971057581571,0.0617488012520253,0.1771498448013976,3
3072,0.1849084179992362,0.5647100731905678,0.6094511864308401,0.0247213432592334,0.0841712482886652,0.1961096915458201,3
3083,0.2042874214048472,0.5733993866572409,0.6027969623776334,0.0272061948306232,0.085190447390585,0.1961096915458201,3
3094,0.2209519674199277,0.5808449489373816,0.5933889422120119,0.0253425536075968,0.0841712482886652,0.1942137130841359,3
3105,0.2352925569322385,0.5887039652904296,0.5862760654274541,0.0209940709911169,0.0821328333862247,0.1866297681736088,3
3116,0.2519571029473191,0.5862232408529863,0.5803098204712741,0.0141607368032472,0.0770368378766255,0.1752538663397135,3
3128,0.2600941255109791,0.5750532029488697,0.5782458831801947,0.0067061922670141,0.0709216265665056,0.167669952492977,3
3139,0.2662945176556642,0.5709152732519868,0.5782458831801947,-0.0001271317429191,0.0637872161544659,0.161981986044134,3
3150,0.2713329315489645,0.5684345488145435,0.5796218413742474,-0.0026119833143089,0.057672004844346,0.1581900291207657,3
3161,0.2713329315489645,0.5585048731291486,0.5805391468369495,-0.0026119833143089,0.0566528057424261,0.1525020626719228,3
3173,0.2690089750461947,0.5469213811521251,0.583751595680715,-0.0007483522692188,0.0566528057424261,0.1506060842102386,3
3184,0.2678438219908442,0.5398892729448915,0.5881125560771668,-0.0026119833143089,0.0556335899419055,0.1543980411336069,3
3195,0.2643578872366893,0.5361647973209158,0.5897178406368954,-0.0032331936626722,0.0546143908399856,0.1581900291207657,3
3206,0.2488553194729937,0.5328571647376581,0.5904058197339217,-0.0026119833143089,0.0535951917380658,0.161981986044134,3
3218,0.2403277960215732,0.5332706188105654,0.5878832297114914,-0.0019907729659455,0.0515567935342261,0.1657739429675022,3
3229,0.233740077793093,0.5316134135511257,0.5855880863304278,-0.0019907729659455,0.0505375944323063,0.1733578878780294,3
3240,0.2321907734579132,0.5340975269563798,0.5842121281363749,-0.0044756143593989,0.0505375944323063,0.1828378112502406,3
3251,0.2368418612674184,0.5444406567146818,0.5823756374866622,-0.0082028866275155,0.0505375944323063,0.1904217250969771,3
3263,0.2453662099148734,0.5597452353478704,0.5826049638523376,-0.0150362208153852,0.0393263709139863,0.1866297681736088,3
3274,0.253506407282499,0.5750532029488697,0.5871933708901562,-0.0156574311637485,0.0342303587057863,0.167669952492977,3
3285,0.2577701690082092,0.5775339273863132,0.5915543312866081,-0.0156574311637485,0.0311727614000268,0.1468141272868704,3
3296,0.252731755114909,0.5601586894207776,0.5936182685776875,-0.0181422827351383,0.0250575500899069,0.1373342039146591,3
3308,0.2318034473741182,0.5303730513324041,0.6037142678403353,-0.0218695550032549,0.0169039405759473,0.1392301823763433,3
3319,0.2329654256255031,0.532026867624033,0.6110583507148774,-0.0249756067450716,0.0148655256735068,0.1506060842102386,3
3330,0.2352925569322385,0.5357513432480085,0.6165640632153978,-0.0237331860483449,0.0158847247754266,0.1638779645058181,3
3341,0.2352925569322385,0.5365782513938231,0.6179419011337595,-0.0193847034318651,0.0179231396778672,0.1752538663397135,3
3353,0.2325780995417081,0.5336840728834725,0.6165640632153978,-0.0150362208153852,0.0219999360855465,0.1828378112502406,3
3364,0.2294763160673827,0.5307865054053112,0.6145001259243184,-0.0088240969758788,0.0372879727101467,0.1942137130841359,3
3375,0.2318034473741182,0.5378186136125447,0.6119756561775792,-0.0125513692439954,0.0515567935342261,0.2036936053925566,3
3386,0.2368418612674184,0.5539534893593586,0.6076165755054362,-0.017521072386775,0.0678640125621452,0.2112775503030837,3
3397,0.2438169055796935,0.571328727324894,0.6002724926308942,-0.0200059137802284,0.0780560369785453,0.2112775503030837,3
3409,0.2476933412216088,0.5779473814592203,0.5979792289741394,-0.0206271241285918,0.0790752360804652,0.2036936053925566,3
3420,0.2372291873512133,0.5630562568989389,0.6007330250865539,-0.0231119756999816,0.0739792238722651,0.1942137130841359,3
3431,0.2232759239226976,0.551059310849008,0.5979792289741394,-0.0274604583164615,0.0729600247703453,0.1923177346224518,3
3442,0.2128117700523022,0.5539534893593586,0.591095678555257,-0.0287028790131882,0.0760176220761048,0.1980056700075042,3
3454,0.2108751396333273,0.5647100731905678,0.5842121281363749,-0.0243543963967083,0.0811136342843048,0.2017976269308724,3
3465,0.2155262274428326,0.5725690895436157,0.579392515008572,-0.0044756143593989,0.0862096464925049,0.2017976269308724,3
3476,0.2201773152523378,0.5725690895436157,0.5777872304488436,0.0054637715702874,0.085190447390585,0.1980056700075042,3
3487,0.2236632500064926,0.5659504354092895,0.5748041079707534,0.0116758852318574,0.0831520491867453,0.1904217250969771,3
3499,0.234514729960683,0.5494021055895684,0.5688378630145732,0.011054674883494,0.0790752360804652,0.1847337897119247,3
3510,0.2329654256255031,0.5494021055895684,0.5686085366488978,0.0029789199988976,0.0749984229741849,0.1809418327885565,3
3521,0.2248284030618431,0.5527131271406369,0.5660840669021586,-0.0075816762791521,0.0719408256684254,0.1790458543268724,3
3532,0.2163008796104225,0.5543669434322658,0.5626422916927175,-0.0156574311637485,0.0709216265665056,0.1771498448013976,3
3543,0.2120371178847122,0.5605721434936848,0.5596591692146273,-0.0187634930835017,0.0688832116640651,0.1752538663397135,3
3555,0.2124244439685072,0.5680210947416363,0.5598884955803027,-0.0082028866275155,0.0546143908399856,0.1828378112502406,3
3566,0.2159135535266275,0.567607640668729,0.5649374350737812,0.0004940786054442,0.0484991795298657,0.1866297681736088,3
3577,0.2182375100293974,0.5531265812135442,0.5695258421115996,0.0054637715702874,0.0434031840202665,0.1904217250969771,3
3588,0.2170755317780125,0.5336840728834725,0.5727382909553653,0.0048425612219241,0.0383071718120665,0.1942137130841359,3
3599,0.2166882056942174,0.5254082134897066,0.578933862277221,-0.0026119833143089,0.0352495578077061,0.1999016484691883,3
3611,0.2213392935037228,0.5336840728834725,0.5812290056582847,-0.0131725897702951,0.0372879727101467,0.2017976269308724,3
3622,0.2290889899835878,0.5498189486302864,0.5816876583896358,-0.0231119756999816,0.0423839682197459,0.2017976269308724,3
3633,0.2364545351836234,0.571328727324894,0.579392515008572,-0.0268392479680981,0.0454415822241062,0.2017976269308724,3
3644,0.2418802751607187,0.589530873436244,0.5777872304488436,-0.0224907653516182,0.0444223831221864,0.2074855933797154,3
3656,0.2469186890540188,0.5973932787571027,0.5784752095458701,0.0023577096505343,0.018942338779787,0.2131735287647678,3
3667,0.2504046238081737,0.5986336409758244,0.5782458831801947,0.0141607368032472,0.0046735179557076,0.2112775503030837,3
3678,0.2496299716405837,0.593668803133127,0.5766387188961573,0.0203728606427535,-0.0075569046645321,0.2036936053925566,3
3689,0.2426549273283086,0.5829122193019177,0.5773266979931839,0.0203728606427535,-0.013672115974652,0.1961096915458201,3
3701,0.2248284030618431,0.5700883651061723,0.5890298615398689,0.0147819471516105,-0.013672115974652,0.188525746635293,3
3712,0.2228885978389026,0.5717421813978013,0.5961427383244267,0.0067061922670141,-0.0075569046645321,0.1847337897119247,3
3723,0.2248284030618431,0.5791911326457527,0.602567636011958,-0.0013695626175822,-0.0004224942524924,0.1790458543268724,3
3734,0.2290889899835878,0.5870501489988007,0.6110583507148774,-0.0057180452340621,0.0046735179557076,0.1714619094163452,3
3746,0.2333527517092981,0.5849794896664539,0.6174832484024085,-0.0063392555824254,0.0077311152614671,0.161981986044134,3
3757,0.2352925569322385,0.5733993866572409,0.619547185693488,-0.0032331936626722,0.0148655256735068,0.1373342039146591,3
3768,0.2341274038768881,0.5613990516394993,0.6179419011337595,-0.0013695626175822,0.0230191518860672,0.1316462685296068,3
3780,0.2294763160673827,0.5489886515166612,0.6138121468272919,0.0017364993021709,0.0342303587057863,0.1373342039146591,3
3791,0.225990381313228,0.5274788728220534,0.6057800848557235,0.0048425612219241,0.041364769117826,0.1487101057485545,3
3802,0.2314161212903232,0.5221005809064488,0.6055507584900481,0.0054637715702874,0.0434031840202665,0.1562940506590816,3
3813,0.2368418612674184,0.52044676461482,0.6046334530273461,0.0042213508735607,0.0423839682197459,0.1600860075824499,3
3824,0.2383911656025983,0.5221005809064488,0.6048627793930215,0.0017364993021709,0.0352495578077061,0.1600860075824499,3
3836,0.233740077793093,0.5237543971980778,0.6062387375870745,-0.0001271317429191,0.0270959482937466,0.1600860075824499,3
3847,0.225990381313228,0.5208602186877272,0.6071579227740852,-0.0019907729659455,0.0240383509879871,0.167669952492977,3
3858,0.2159135535266275,0.5134112674397757,0.6080752282367873,-0.0026119833143089,0.0270959482937466,0.1790458543268724,3
3869,0.2042874214048472,0.5113439970752397,0.6101391655278665,-0.0032331936626722,0.0321919605019466,0.188525746635293,3
3881,0.2011856379305218,0.5196164675011948,0.6124343089089302,-0.0032331936626722,0.0423839682197459,0.1961096915458201,3
3892,0.2213392935037228,0.5382354566532627,0.6037142678403353,-0.0013695626175822,0.057672004844346,0.2017976269308724,3
3903,0.2248284030618431,0.5274788728220534,0.5982085553398148,0.0023577096505343,0.0699024107659849,0.2036936053925566,3
3915,0.2182375100293974,0.5154819267721226,0.5991258608025168,0.0023577096505343,0.0699024107659849,0.2055896149180313,3
3926,0.2077765309629675,0.5129978133668686,0.6032556151089844,-0.0026119833143089,0.0658256143583055,0.2093815718413995,3
3937,0.2042874214048472,0.5216871268335417,0.6037142678403353,-0.0094453175021786,0.0637872161544659,0.2112775503030837,3
3948,0.2089385092143524,0.5394758188719844,0.5998138398995432,-0.0137938001186585,0.0637872161544659,0.2150695072264519,3
3960,0.2139769231076526,0.5522996730677296,0.5961427383244267,-0.0094453175021786,0.0597104030481857,0.2207574736752949,3
3971,0.2139769231076526,0.5514727649219152,0.5947667801303738,-0.0032331936626722,0.0556335899419055,0.2283413875220314,3
3982,0.2155262274428326,0.5440272026417745,0.5897178406368954,0.0011152889538075,0.057672004844346,0.2340293539708744,3
3993,0.2228885978389026,0.5419565433094277,0.5855880863304278,0.0017364993021709,0.0627680003539452,0.2397172893559268,3
4005,0.2314161212903232,0.5456810189334034,0.5858174126961033,0.0011152889538075,0.0699024107659849,0.2416132988814015,3
4016,0.2383911656025983,0.5527131271406369,0.5881125560771668,-0.0001271317429191,0.0760176220761048,0.2359253324325585,3
4027,0.2422676012445136,0.5460944730063106,0.5888005351741935,-0.0032331936626722,0.0780560369785453,0.2264454090603473,3
4038,0.2414929490769236,0.5394758188719844,0.5890298615398689,-0.017521072386775,0.0648064152563857,0.2074855933797154,3
4050,0.2426549273283086,0.5560241486917055,0.5913250049209327,-0.0212483446548915,0.0515567935342261,0.2074855933797154,3
4061,0.2473060151378138,0.5721556354707085,0.5940788010333472,-0.0168998518604752,0.0383071718120665,0.2131735287647678,3
4072,0.2500172977243787,0.5700883651061723,0.5952254328617246,-0.0069604659307888,0.0301535622981069,0.2188614952136108,3
4083,0.2372291873512133,0.5498189486302864,0.5963720646901021,0.0023577096505343,0.0301535622981069,0.2245494305986632,3
4095,0.2310287952065282,0.5394758188719844,0.5977499026084637,0.0085698334900406,0.036268756909626,0.2245494305986632,3
4106,0.2306414691227332,0.5274788728220534,0.6037142678403353,0.009191043838404,0.0464607813260261,0.2283413875220314,3
4117,0.2364545351836234,0.5270654187491463,0.6112876770805528,0.0042213508735607,0.0617488012520253,0.2397172893559268,3
4128,0.2442042316634885,0.5444406567146818,0.6133516143716322,-0.0057180452340621,0.080094435182385,0.2510931911898222,3
4139,0.2500172977243787,0.5647100731905678,0.6094511864308401,-0.0206271241285918,0.1055744795247844,0.2416132988814015,3
4151,0.2515666020595586,0.5742262948030553,0.6046334530273461,-0.0206271241285918,0.1035360813209447,0.2264454090603473,3
4162,0.2500172977243787,0.5717421813978013,0.6014210041835805,-0.0168998518604752,0.0953824551083843,0.2131735287647678,3
4173,0.2418802751607187,0.5303730513324041,0.5897178406368954,-0.0137938001186585,0.0862096464925049,0.2036936053925566,3
4184,0.2387784916863933,0.5187895593553804,0.583751595680715,-0.0125513692439954,0.0770368378766255,0.1999016484691883,3
4195,0.233740077793093,0.5171357430637514,0.5809996792926092,-0.0137938001186585,0.0688832116640651,0.2017976269308724,3
4207,0.2279270117322029,0.5192030134282876,0.579392515008572,-0.0156574311637485,0.0658256143583055,0.2074855933797154,3
4218,0.227152359564613,0.5258216675626138,0.5791631886428966,-0.0156574311637485,0.0688832116640651,0.2150695072264519,3
4229,0.2306414691227332,0.5361647973209158,0.5803098204712741,-0.0131725897702951,0.0760176220761048,0.222653452136979,3
4240,0.2341274038768881,0.5419565433094277,0.5809996792926092,-0.0038544040110356,0.0923248578026248,0.2245494305986632,3
4251,0.2376165134350084,0.5398892729448915,0.5782458831801947,-0.0019907729659455,0.0994592682146645,0.2264454090603473,3
4263,0.2453662099148734,0.5349244351021942,0.5725089645896897,-0.0032331936626722,0.1004784673165843,0.2283413875220314,3
4274,0.2678438219908442,0.5349244351021942,0.5647081087081056,-0.0075816762791521,0.0943632560064644,0.2340293539708744,3
4285,0.2728822358841444,0.5394758188719844,0.5670013723648605,-0.0137938001186585,0.080094435182385,0.2397172893559268,3
4296,0.2740473889394949,0.5494021055895684,0.5741142491494182,-0.0181422827351383,0.0607296021501055,0.2416132988814015,3
4307,0.2732695619679394,0.5585048731291486,0.5809996792926092,-0.0200059137802284,0.0423839682197459,0.2397172893559268,3
4319,0.2662945176556642,0.5634697109718462,0.5885712088085179,-0.0224907653516182,0.0281151473956664,0.2359253324325585,3
4330,0.2546683855338839,0.571328727324894,0.5952254328617246,-0.0255968272713714,0.0179231396778672,0.2359253324325585,3
4341,0.2461408620824633,0.5829122193019177,0.5995845135338678,-0.0224907653516182,0.0199615378817069,0.2416132988814015,3
4352,0.2449788838310784,0.5944957112789414,0.6023383096462823,-0.017521072386775,0.0321919605019466,0.2359253324325585,3
4363,0.2465313629702239,0.5965629816434775,0.602567636011958,-0.0131725897702951,0.0434031840202665,0.2264454090603473,3
4375,0.253506407282499,0.5899443275091512,0.5968307174214531,-0.0113089485472686,0.0505375944323063,0.2169655167519267,3
4386,0.2608687776785691,0.5916015327685908,0.5904058197339217,-0.0125513692439954,0.0535951917380658,0.2112775503030837,3
4397,0.2686216489623997,0.5899443275091512,0.5832929429493641,-0.0156574311637485,0.0546143908399856,0.2074855933797154,3
4408,0.2713329315489645,0.583325673374825,0.5784752095458701,-0.0187634930835017,0.0546143908399856,0.2055896149180313,3
4420,0.2686216489623997,0.5742262948030553,0.5761800661648065,-0.0200059137802284,0.0535951917380658,0.2036936053925566,3
4431,0.2612561037623641,0.5622293487531245,0.5775560243588593,-0.0168998518604752,0.0505375944323063,0.2074855933797154,3
4442,0.2519571029473191,0.5506458567761008,0.5823756374866622,-0.0137938001186585,0.0464607813260261,0.2074855933797154,3
4453,0.2438169055796935,0.5386489107261699,0.5890298615398689,-0.0100665278505419,0.0444223831221864,0.2074855933797154,3
4464,0.233740077793093,0.528305780967868,0.5959134119587512,-0.0075816762791521,0.0434031840202665,0.2055896149180313,3
4476,0.2275396856484079,0.52044676461482,0.5975205762427883,-0.0063392555824254,0.0474799804279459,0.2036936053925566,3
4487,0.2267650334808179,0.5237543971980778,0.5936182685776875,-0.0057180452340621,0.0546143908399856,0.2055896149180313,3
4498,0.227152359564613,0.5324437106647509,0.5908663521895816,-0.0038544040110356,0.0637872161544659,0.2150695072264519,3
4509,0.2333527517092981,0.5469213811521251,0.5892591879055443,-0.0007483522692188,0.0709216265665056,0.2264454090603473,3
4521,0.2418802751607187,0.5630562568989389,0.5876539033458161,0.0054637715702874,0.0760176220761048,0.2378213108942426,3
4532,0.2473060151378138,0.5692614569603579,0.584670780867726,0.0203728606427535,0.0831520491867453,0.2302373970475062,3
4543,0.2519571029473191,0.565123527263475,0.5770973716275083,0.0197516502943902,0.085190447390585,0.2245494305986632,3
4554,0.2597067994271841,0.565123527263475,0.5688378630145732,0.0141607368032472,0.0811136342843048,0.222653452136979,3
4565,0.2705582793813745,0.5721556354707085,0.5649374350737812,0.009191043838404,0.0719408256684254,0.2207574736752949,3
4577,0.2728822358841444,0.5758801110946843,0.5709018003056526,0.0073274127933139,0.0627680003539452,0.2150695072264519,3
4588,0.2628085829015095,0.5671907976280112,0.5748041079707534,0.0054637715702874,0.057672004844346,0.2036936053925566,3
4599,0.254281059450089,0.5572645109104271,0.5780165568145192,0.0023577096505343,0.0566528057424261,0.1923177346224518,3
4610,0.2504046238081737,0.5415430892365205,0.5798511677399231,-0.0001271317429191,0.0586912039462658,0.1866297681736088,3
4622,0.2488553194729937,0.526651964676239,0.5812290056582847,0.0011152889538075,0.0637872161544659,0.1923177346224518,3
4633,0.2473060151378138,0.5216871268335417,0.584670780867726,0.0023577096505343,0.0831520491867453,0.2036936053925566,3
4644,0.2430422534121035,0.5316134135511257,0.5881125560771668,0.0042213508735607,0.0923248578026248,0.1961096915458201,3
4655,0.2411056229931286,0.5427834514552422,0.5869640445244808,0.0116758852318574,0.0943632560064644,0.1866297681736088,3
4667,0.2414929490769236,0.5129978133668686,0.5780165568145192,0.0197516502943902,0.0882480446963445,0.1866297681736088,3
4678,0.2430422534121035,0.4968663265878654,0.5704431475743016,0.0209940709911169,0.0790752360804652,0.1999016484691883,3
4689,0.2442042316634885,0.4906577375586357,0.5637889235210949,0.0116758852318574,0.0678640125621452,0.2112775503030837,3
4700,0.2445915577472835,0.513824721512683,0.5667720459991851,-0.0032331936626722,0.0566528057424261,0.2188614952136108,3
4712,0.2507919498919686,0.5568510568375199,0.5736555964180672,-0.0137938001186585,0.0525759926361459,0.222653452136979,3
4723,0.2589321472595942,0.5870501489988007,0.5734262700523918,-0.0001271317429191,0.0556335899419055,0.2150695072264519,3
4734,0.2651325394042794,0.592014986841498,0.5692965157459242,0.0147819471516105,0.0464607813260261,0.2074855933797154,3
4745,0.2697836272137846,0.5808449489373816,0.5690671893802488,0.022857702036207,0.0342303587057863,0.1980056700075042,3
4756,0.2678438219908442,0.5642966191176606,0.5734262700523918,0.0209940709911169,0.0250575500899069,0.1942137130841359,3
4768,0.2628085829015095,0.5498189486302864,0.5874245769801405,0.0135395264548838,0.0209807369836267,0.1942137130841359,3
4779,0.2651325394042794,0.5576779649833342,0.5913250049209327,0.0029789199988976,0.0199615378817069,0.1961096915458201,3
4790,0.2705582793813745,0.5709152732519868,0.5933889422120119,-0.0063392555824254,0.018942338779787,0.1980056700075042,3
4801,0.2752093671908798,0.575466657021777,0.5970600437871286,-0.0137938001186585,0.0179231396778672,0.1961096915458201,3
4813,0.2763713454422647,0.5688480028874506,0.6023383096462823,-0.0193847034318651,0.0169039405759473,0.1866297681736088,3
4824,0.2759840193584698,0.5642966191176606,0.6057800848557235,-0.0287028790131882,0.0250575500899069,0.1790458543268724,3
4835,0.2744347150232898,0.5688480028874506,0.6087632073338136,-0.0293240893615515,0.0291343464975863,0.1809418327885565,3
4846,0.2705582793813745,0.5738128407301482,0.6119756561775792,-0.0262180376197348,0.0352495578077061,0.1847337897119247,3
4858,0.2666818437394592,0.575466657021777,0.6131222880059566,-0.0212483446548915,0.0423839682197459,0.1866297681736088,3
4869,0.2659071915718693,0.5738128407301482,0.6167952693053821,-0.0150362208153852,0.0495183786317856,0.1866297681736088,3
4880,0.2597067994271841,0.5812584030102889,0.6124343089089302,-0.0069604659307888,0.057672004844346,0.1828378112502406,3
4891,0.2550557116176789,0.5824987652290105,0.5995845135338678,0.0067061922670141,0.0688832116640651,0.1733578878780294,3
4903,0.2558303637852688,0.5593317812749632,0.5862760654274541,0.0247213432592334,0.0790752360804652,0.1638779645058181,3
4914,0.2577701690082092,0.52044676461482,0.5787045359115457,0.03652436023401,0.085190447390585,0.161981986044134,3
4925,0.261643429846159,0.4947956672555186,0.5743454552394025,0.0234789123845703,0.0902864429001843,0.1714619094163452,3
4936,0.2705582793813745,0.4964494835471474,0.5695258421115996,0.0116758852318574,0.0831520491867453,0.1790458543268724,3
4948,0.2798604550003851,0.5084464295970784,0.5665427196335097,0.0054637715702874,0.0709216265665056,0.1866297681736088,3
4959,0.2744347150232898,0.5187895593553804,0.5653960878051322,0.0023577096505343,0.0586912039462658,0.1942137130841359,3
4970,0.2713329315489645,0.5295461431865895,0.5667720459991851,0.0017364993021709,0.0505375944323063,0.1942137130841359,3
4981,0.2705582793813745,0.534510981029287,0.571591659126988,0.0048425612219241,0.041364769117826,0.1904217250969771,3
4993,0.2690089750461947,0.5278923268949607,0.5759507397991309,0.0098122541867673,0.0342303587057863,0.1904217250969771,3
5004,0.2674564959070492,0.5142381755855902,0.5770973716275083,0.0135395264548838,0.0311727614000268,0.1923177346224518,3
5015,0.2666818437394592,0.5034849807221917,0.5791631886428966,0.011054674883494,0.0372879727101467,0.1942137130841359,3
5026,0.2686216489623997,0.5030715266492845,0.5839809220463906,0.0048425612219241,0.0403455700159062,0.1942137130841359,3
5038,0.2732695619679394,0.5088632726377963,0.5901764933682463,-0.0026119833143089,0.0393263709139863,0.1980056700075042,3
5049,0.2841210419221298,0.528305780967868,0.6023383096462823,-0.0069604659307888,0.0372879727101467,0.1961096915458201,3
5060,0.2841210419221298,0.532026867624033,0.6069267166841009,-0.0082028866275155,0.0372879727101467,0.188525746635293,3
5071,0.2790826280288295,0.5258216675626138,0.6094511864308401,-0.0063392555824254,0.0403455700159062,0.1866297681736088,3
5083,0.2748220411070848,0.5183761052824731,0.6103703716178508,-0.0038544040110356,0.0434031840202665,0.188525746635293,3
5094,0.2744347150232898,0.5084464295970784,0.6101391655278665,-0.0001271317429191,0.0495183786317856,0.1904217250969771,3
5105,0.2759840193584698,0.5010008673169377,0.6083045546024627,0.0017364993021709,0.057672004844346,0.1942137130841359,3
5116,0.280635107167975,0.505965705159635,0.604174800295995,-0.0069604659307888,0.0749984229741849,0.1961096915458201,3
5128,0.2864481732288652,0.5179626512095659,0.5977499026084637,-0.011930158895632,0.0760176220761048,0.1999016484691883,3
5139,0.289546781899225,0.5303730513324041,0.5917836576522837,-0.0125513692439954,0.0719408256684254,0.2017976269308724,3
5150,0.2949725218763202,0.5498189486302864,0.5832929429493641,-0.0113089485472686,0.0658256143583055,0.2017976269308724,3
5161,0.2907119349545754,0.5502324027031935,0.5826049638523376,-0.0113089485472686,0.0597104030481857,0.1980056700075042,3
5173,0.2856735210612753,0.5477482892979395,0.5826049638523376,-0.0162786415121119,0.0556335899419055,0.1866297681736088,3
5184,0.2841210419221298,0.544854110787589,0.5851294335990768,-0.0243543963967083,0.0546143908399856,0.1714619094163452,3
5195,0.2837337158383348,0.5502324027031935,0.5888005351741935,-0.0336725821559678,0.0566528057424261,0.1638779645058181,3
5206,0.2825717375869499,0.5626428028260316,0.58948851427122,-0.0336725821559678,0.0648064152563857,0.1449181488251862,3
5218,0.281409759335565,0.5647100731905678,0.5849001072334014,-0.0249756067450716,0.0678640125621452,0.1335422469912909,3
5229,0.2790826280288295,0.5489886515166612,0.5796218413742474,-0.0156574311637485,0.0668448134602254,0.1240623236190796,3
5240,0.2783079758612396,0.5299595972594968,0.5782458831801947,-0.0100665278505419,0.0658256143583055,0.1202703666957114,3
5251,0.2728822358841444,0.5076195214512639,0.5798511677399231,-0.0069604659307888,0.0678640125621452,0.1240623236190796,3
5263,0.2682343228786046,0.5018277754627521,0.576409392530482,-0.0063392555824254,0.0739792238722651,0.135438225452975,3
5274,0.2659071915718693,0.4939687591097041,0.5704431475743016,-0.0063392555824254,0.080094435182385,0.1506060842102386,3
5285,0.2678438219908442,0.4919014887451681,0.565854740536483,-0.0069604659307888,0.0841712482886652,0.1638779645058181,3
5297,0.2713329315489645,0.4935553050367969,0.5617249862300154,-0.0100665278505419,0.0892672437982644,0.1790458543268724,3
5308,0.2759840193584698,0.4964494835471474,0.5578226785649146,-0.0113089485472686,0.0872288455944247,0.1866297681736088,3
5319,0.28024778108418,0.5022412295356593,0.5566760467365371,-0.0113089485472686,0.0790752360804652,0.1923177346224518,3
5330,0.2821844115031549,0.5067926133054494,0.5589711901176009,-0.0106877381989053,0.0658256143583055,0.1999016484691883,3
5342,0.2860608471450702,0.5212736727606344,0.567689351461887,-0.0082028866275155,0.0515567935342261,0.2093815718413995,3
5353,0.28915945581543,0.5287192350407751,0.5697551684772751,-0.0032331936626722,0.0403455700159062,0.2131735287647678,3
5364,0.2903246088707805,0.5258216675626138,0.5695258421115996,-0.0001271317429191,0.0342303587057863,0.2131735287647678,3
5375,0.2856735210612753,0.5121709052210541,0.5688378630145732,0.0004940786054442,0.0321919605019466,0.2169655167519267,3
5387,0.2790826280288295,0.5026546836085666,0.5704431475743016,-0.0032331936626722,0.0332111596038665,0.2207574736752949,3
5398,0.2759840193584698,0.5047253429409133,0.5720503118583389,-0.0156574311637485,0.0383071718120665,0.2340293539708744,3
5409,0.2783079758612396,0.5212736727606344,0.5718209854926634,-0.0181422827351383,0.0393263709139863,0.2378213108942426,3
5420,0.2845083680059248,0.5415430892365205,0.5722796382240143,-0.0144150104670218,0.0372879727101467,0.2397172893559268,3
5432,0.2868354993126601,0.5444406567146818,0.584670780867726,-0.0063392555824254,0.0321919605019466,0.2416132988814015,3
5443,0.28179708541936,0.534510981029287,0.591095678555257,-0.0007483522692188,0.0260767491918267,0.2435092773430857,3
5454,0.2759840193584698,0.5254082134897066,0.5949961064960492,-0.0001271317429191,0.0219999360855465,0.2435092773430857,3
5465,0.2721075837165545,0.5287192350407751,0.5963720646901021,-0.0057180452340621,0.0199615378817069,0.2397172893559268,3
5477,0.2705582793813745,0.5473348352250322,0.5970600437871286,-0.0125513692439954,0.0199615378817069,0.2340293539708744,3
5488,0.2705582793813745,0.5680210947416363,0.5977499026084637,-0.0156574311637485,0.0250575500899069,0.2321333755091903,3
5499,0.2713329315489645,0.5725690895436157,0.5966013910557777,-0.0013695626175822,0.0403455700159062,0.2264454090603473,3
5510,0.2713329315489645,0.5601586894207776,0.5949961064960492,0.0073274127933139,0.0444223831221864,0.2188614952136108,3
5522,0.2697836272137846,0.5407161810907061,0.5938475949433629,0.0098122541867673,0.0474799804279459,0.2112775503030837,3
5533,0.2647452133204844,0.5270654187491463,0.5869640445244808,0.0060849819186508,0.0484991795298657,0.2093815718413995,3
5544,0.2659071915718693,0.5349244351021942,0.5865053917931298,-0.0001271317429191,0.0484991795298657,0.2150695072264519,3
5555,0.2678438219908442,0.5477482892979395,0.584670780867726,-0.0044756143593989,0.0515567935342261,0.222653452136979,3
5567,0.2732695619679394,0.5597452353478704,0.5823756374866622,-0.0032331936626722,0.0535951917380658,0.2245494305986632,3
5578,0.2790826280288295,0.5593317812749632,0.5798511677399231,0.0023577096505343,0.0546143908399856,0.2207574736752949,3
5589,0.2841210419221298,0.5531265812135442,0.5770973716275083,0.0060849819186508,0.057672004844346,0.2017976269308724,3
5600,0.2910992610383704,0.5543669434322658,0.5731969436867164,0.0054637715702874,0.0566528057424261,0.1904217250969771,3
5612,0.2980743053506455,0.5589183272020559,0.5695258421115996,0.0067061922670141,0.0505375944323063,0.1847337897119247,3
5623,0.2976869792668505,0.5551938515780803,0.567689351461887,0.0085698334900406,0.0434031840202665,0.1790458543268724,3
5634,0.2841210419221298,0.5378186136125447,0.5722796382240143,0.0073274127933139,0.036268756909626,0.1714619094163452,3
5645,0.2721075837165545,0.5245813053438921,0.5770973716275083,0.0036001405251974,0.0301535622981069,0.1600860075824499,3
5657,0.2631959089853045,0.5088632726377963,0.5800804941055985,-0.0019907729659455,0.0281151473956664,0.1487101057485545,3
5668,0.261643429846159,0.4976932347336799,0.5814583320239601,-0.0094453175021786,0.0321919605019466,0.141126191901818,3
5679,0.2686216489623997,0.4952091213284257,0.5839809220463906,-0.0156574311637485,0.0403455700159062,0.141126191901818,3
5690,0.2810224332517699,0.499760505098216,0.5851294335990768,-0.0168998518604752,0.0525759926361459,0.1430221703635021,3
5702,0.2903246088707805,0.505965705159635,0.5835222693150396,-0.0137938001186585,0.0495183786317856,0.1468141272868704,3
5713,0.2938105436249353,0.5076195214512639,0.5819169847553112,-0.0094453175021786,0.0434031840202665,0.1525020626719228,3
5724,0.2980743053506455,0.5125843592939614,0.5800804941055985,-0.0044756143593989,0.0383071718120665,0.1581900291207657,3
5735,0.3011729140210053,0.5121709052210541,0.5741142491494182,-0.0001271317429191,0.0352495578077061,0.161981986044134,3
5747,0.3011729140210053,0.5109305430023324,0.5692965157459242,0.0029789199988976,0.0332111596038665,0.1657739429675022,3
5758,0.3015634149087659,0.5088632726377963,0.5695258421115996,0.0048425612219241,0.0352495578077061,0.1695659309546611,3
5769,0.3046620235791257,0.4981066888065871,0.5709018003056526,0.0042213508735607,0.041364769117826,0.1733578878780294,3
5780,0.3050493496629207,0.4881770131211923,0.5727382909553653,-0.0100665278505419,0.0444223831221864,0.1714619094163452,3
5792,0.3011729140210053,0.4898308294128212,0.5754920870677799,-0.0193847034318651,0.0393263709139863,0.167669952492977,3
5803,0.2957471740439102,0.4968663265878654,0.5766387188961573,-0.0243543963967083,0.0311727614000268,0.167669952492977,3
5814,0.2872228253964551,0.4993470510253087,0.576409392530482,-0.0237331860483449,0.0219999360855465,0.1752538663397135,3
5826,0.2837337158383348,0.5005874132440304,0.578933862277221,-0.0187634930835017,0.0148655256735068,0.1866297681736088,3
5837,0.2759840193584698,0.4960360294742403,0.5839809220463906,-0.0137938001186585,0.0118079283677473,0.1980056700075042,3
5848,0.2631959089853045,0.4881770131211923,0.5865053917931298,-0.0106877381989053,0.0158847247754266,0.2131735287647678,3
5859,0.2538937333662939,0.4832121752784949,0.5828342902180133,-0.0094453175021786,0.0281151473956664,0.2283413875220314,3
5871,0.2511792759757636,0.4819718130597732,0.5782458831801947,-0.0144150104670218,0.0546143908399856,0.2435092773430857,3
5882,0.2558303637852688,0.4906577375586357,0.5741142491494182,-0.0168998518604752,0.0586912039462658,0.2473012342664539,3
5893,0.262030755929954,0.5084464295970784,0.5690671893802488,-0.0162786415121119,0.0556335899419055,0.249197212728138,3
5905,0.2682343228786046,0.5287192350407751,0.5672306987305361,-0.0100665278505419,0.0464607813260261,0.2529891696515062,3
5916,0.280635107167975,0.5374051595396375,0.565854740536483,-0.0007483522692188,0.0352495578077061,0.2510931911898222,3
5927,0.2810224332517699,0.5299595972594968,0.5626422916927175,0.0054637715702874,0.0250575500899069,0.249197212728138,3
5938,0.28024778108418,0.5295461431865895,0.5617249862300154,0.0079486231416772,0.0179231396778672,0.2454052558047698,3
5950,0.2794731289165901,0.5353378891751014,0.5649374350737812,0.0067061922670141,0.0148655256735068,0.2416132988814015,3
5961,0.2759840193584698,0.5365782513938231,0.5711330063956369,0.0029789199988976,0.0148655256735068,0.2397172893559268,3
5972,0.2701709532975796,0.5369917054667303,0.578933862277221,-0.0026119833143089,0.018942338779787,0.2454052558047698,3
5983,0.2651325394042794,0.5419565433094277,0.5851294335990768,0.0011152889538075,0.0219999360855465,0.2473012342664539,3
5994,0.2639705611528944,0.5407161810907061,0.5885712088085179,0.0073274127933139,0.0219999360855465,0.2435092773430857,3
6006,0.2678438219908442,0.5183761052824731,0.5931596158463365,0.0104334645351307,0.0148655256735068,0.2340293539708744,3
6017,0.2701709532975796,0.516308834917937,0.5943081273990228,0.0073274127933139,0.0067119161595473,0.2264454090603473,3
6028,0.2705582793813745,0.528305780967868,0.5940788010333472,0.0017364993021709,-0.0014416933544122,0.222653452136979,3
6039,0.2697836272137846,0.5431969055281494,0.5949961064960492,-0.0019907729659455,-0.0034800915582519,0.2245494305986632,3
6050,0.2674564959070492,0.5514727649219152,0.5956840855930756,-0.0026119833143089,-0.0014416933544122,0.2283413875220314,3
6062,0.2662945176556642,0.5518862189948225,0.5954547592274002,-0.0019907729659455,0.0067119161595473,0.2302373970475062,3
6073,0.2666818437394592,0.5477482892979395,0.5961427383244267,-0.0001271317429191,0.0199615378817069,0.2188614952136108,3
6084,0.2674564959070492,0.5398892729448915,0.5991258608025168,-0.0019907729659455,0.0179231396778672,0.2074855933797154,3
6095,0.2693963011299896,0.5311999594782185,0.6037142678403353,-0.0069604659307888,0.0128271274696671,0.1961096915458201,3
6107,0.2643578872366893,0.5291326891136824,0.6037142678403353,-0.011930158895632,0.0107887292658274,0.1904217250969771,3
6118,0.2577701690082092,0.5287192350407751,0.6000431662652186,-0.0150362208153852,0.0107887292658274,0.188525746635293,3
6129,0.253119081198704,0.5225140349793561,0.5963720646901021,-0.0144150104670218,0.0118079283677473,0.1904217250969771,3
6140,0.2492426455567887,0.5129978133668686,0.5959134119587512,-0.011930158895632,0.013846326571587,0.1980056700075042,3
6152,0.2457535359986684,0.5018277754627521,0.5986672080711658,-0.0075816762791521,0.0209807369836267,0.2093815718413995,3
6163,0.2461408620824633,0.4939687591097041,0.6007330250865539,-0.0050968348856987,0.0403455700159062,0.2207574736752949,3
6174,0.2465313629702239,0.4931418509638897,0.6002724926308942,-0.0094453175021786,0.0454415822241062,0.2207574736752949,3
6185,0.2480806673054038,0.5010008673169377,0.5975205762427883,-0.0144150104670218,0.0474799804279459,0.2207574736752949,3
6197,0.2558303637852688,0.5192030134282876,0.5936182685776875,-0.0150362208153852,0.0454415822241062,0.222653452136979,3
6208,0.2639705611528944,0.5419565433094277,0.5855880863304278,-0.011930158895632,0.041364769117826,0.2188614952136108,3
6219,0.261643429846159,0.5365782513938231,0.5812290056582847,-0.0082028866275155,0.036268756909626,0.2131735287647678,3
6230,0.2593194733433892,0.5258216675626138,0.5750334343364291,-0.0075816762791521,0.0342303587057863,0.2093815718413995,3
6242,0.2562176898690638,0.5117574511481469,0.570672473939977,-0.0113089485472686,0.0342303587057863,0.2055896149180313,3
6253,0.252731755114909,0.5076195214512639,0.571591659126988,-0.0187634930835017,0.0311727614000268,0.2036936053925566,3
6264,0.2461408620824633,0.5154819267721226,0.5780165568145192,-0.0293240893615515,0.0209807369836267,0.2112775503030837,3
6275,0.2376165134350084,0.5254082134897066,0.5869640445244808,-0.0268392479680981,0.0240383509879871,0.2150695072264519,3
6287,0.2310287952065282,0.5324437106647509,0.5927009631149854,-0.0200059137802284,0.0332111596038665,0.2150695072264519,3
6298,0.2356798830160335,0.5394758188719844,0.5844414545020503,-0.011930158895632,0.0444223831221864,0.2150695072264519,3
6309,0.2449788838310784,0.5361647973209158,0.5787045359115457,-0.0050968348856987,0.0505375944323063,0.2112775503030837,3
6320,0.2484679933891988,0.5270654187491463,0.5791631886428966,-0.0007483522692188,0.0474799804279459,0.2036936053925566,3
6332,0.2453662099148734,0.516308834917937,0.5830636165836887,-0.0013695626175822,0.0383071718120665,0.1942137130841359,3
6343,0.2411056229931286,0.5150684726992153,0.5865053917931298,-0.0075816762791521,0.0270959482937466,0.1866297681736088,3
6354,0.2407182969093337,0.5278923268949607,0.5888005351741935,-0.0168998518604752,0.0199615378817069,0.1904217250969771,3
6366,0.2426549273283086,0.5407161810907061,0.5888005351741935,-0.0125513692439954,0.0209807369836267,0.1923177346224518,3
6377,0.2442042316634885,0.5369917054667303,0.5878832297114914,-0.0069604659307888,0.0230191518860672,0.1904217250969771,3
6388,0.2461408620824633,0.5245813053438921,0.5888005351741935,-0.0038544040110356,0.0270959482937466,0.1923177346224518,3
6399,0.2562176898690638,0.5196164675011948,0.5931596158463365,-0.0032331936626722,0.0321919605019466,0.1980056700075042,3
6411,0.2600941255109791,0.5216871268335417,0.5922423103836345,-0.0032331936626722,0.036268756909626,0.2074855933797154,3
6422,0.261643429846159,0.520029921574102,0.5901764933682463,-0.0038544040110356,0.0383071718120665,0.2131735287647678,3
6433,0.2593194733433892,0.5146550186263081,0.5881125560771668,-0.0075816762791521,0.0393263709139863,0.2131735287647678,3
6444,0.2550557116176789,0.513824721512683,0.5871933708901562,-0.0137938001186585,0.0393263709139863,0.2112775503030837,3
6456,0.2504046238081737,0.516308834917937,0.5881125560771668,-0.0224907653516182,0.0342303587057863,0.2150695072264519,3
6467,0.2449788838310784,0.5221005809064488,0.5901764933682463,-0.0212483446548915,0.0342303587057863,0.2188614952136108,3
6478,0.2426549273283086,0.5303730513324041,0.5901764933682463,-0.0162786415121119,0.0372879727101467,0.222653452136979,3
6489,0.2492426455567887,0.5340975269563798,0.5809996792926092,-0.0100665278505419,0.0403455700159062,0.222653452136979,3
6501,0.252731755114909,0.5229274890522634,0.5780165568145192,-0.0026119833143089,0.0403455700159062,0.222653452136979,3
6512,0.2519571029473191,0.5179626512095659,0.5780165568145192,0.0011152889538075,0.036268756909626,0.2264454090603473,3
6523,0.2476933412216088,0.5175491971366587,0.5821463111209866,-0.0001271317429191,0.0311727614000268,0.2321333755091903,3
6534,0.2411056229931286,0.5187895593553804,0.5883418824428425,-0.0057180452340621,0.0250575500899069,0.2340293539708744,3
6546,0.2356798830160335,0.5249947594167994,0.5933889422120119,-0.0131725897702951,0.0219999360855465,0.2359253324325585,3
6557,0.2314161212903232,0.5316134135511257,0.5952254328617246,-0.0125513692439954,0.0250575500899069,0.2340293539708744,3
6568,0.2306414691227332,0.5374051595396375,0.5940788010333472,-0.0106877381989053,0.0281151473956664,0.2302373970475062,3
6579,0.2422676012445136,0.5349244351021942,0.5855880863304278,-0.0075816762791521,0.0311727614000268,0.2302373970475062,3
6591,0.2496299716405837,0.52044676461482,0.5849001072334014,-0.0050968348856987,0.0321919605019466,0.2340293539708744,3
6602,0.2546683855338839,0.5225140349793561,0.5883418824428425,-0.0038544040110356,0.0332111596038665,0.2435092773430857,3
6613,0.2558303637852688,0.544854110787589,0.5897178406368954,-0.0050968348856987,0.0372879727101467,0.2397172893559268,3
6624,0.2461408620824633,0.5560241486917055,0.5947667801303738,-0.0063392555824254,0.0434031840202665,0.2245494305986632,3
6636,0.2380038395188034,0.5551938515780803,0.5993551871681921,-0.0038544040110356,0.0505375944323063,0.2169655167519267,3
6647,0.2399404699377783,0.5456810189334034,0.5959134119587512,-0.0044756143593989,0.0495183786317856,0.2188614952136108,3
6658,0.2465313629702239,0.5374051595396375,0.5917836576522837,-0.0125513692439954,0.041364769117826,0.2150695072264519,3
6669,0.253119081198704,0.5427834514552422,0.5901764933682463,-0.0206271241285918,0.0311727614000268,0.2074855933797154,3
6681,0.2562176898690638,0.534510981029287,0.6087632073338136,-0.0237331860483449,0.0199615378817069,0.2074855933797154,3
6692,0.2604814515947741,0.5237543971980778,0.6303330437774711,-0.0200059137802284,0.0158847247754266,0.2169655167519267,3
6703,0.2686216489623997,0.5121709052210541,0.6498370632057402,-0.0137938001186585,0.0219999360855465,0.2340293539708744,1
6714,0.2721075837165545,0.5076195214512639,0.6700290617310359,-0.0106877381989053,0.0372879727101467,0.2529891696515062,1
6726,0.2674564959070492,0.5084464295970784,0.6996290804219529,-0.0106877381989053,0.0505375944323063,0.2738449948576129,1
6737,0.2628085829015095,0.510103634856518,0.7402424038382198,-0.0131725897702951,0.0556335899419055,0.3098686788209831,1
6748,0.2686216489623997,0.5109305430023324,0.7964611984662728,-0.0212483446548915,0.057672004844346,0.342100405860985,1
6759,0.2790826280288295,0.4914880346722608,0.8779190513887907,-0.0367786338977846,0.0719408256684254,0.3913959390561441,1
6771,0.280635107167975,0.4534265371901214,0.9880577378152152,-0.064111960471327,0.1157665039411844,0.4558593931361481,1
6782,0.2469186890540188,0.4592182831786331,1.2489521935329486,-0.0988998315811024,0.2044370428900215,0.5241148041395203,1
6793,0.2232759239226976,0.5233409431251705,1.3691887589463294,-0.1256119376283451,0.3481444836299375,0.5961621410024701,1
6805,0.2015729640143168,0.5924284409144053,1.4662502033563245,-0.1280967790217985,0.5519848049719307,0.6701054873908945,1
6816,0.1887848536411515,0.6147685167226381,1.5346289345381048,-0.1088392276887253,0.8027083851938417,0.713713116264792,1
6827,0.1976997031763671,0.5775339273863132,1.5807498501792008,-0.0734301360526501,1.3316741384713102,0.649249662184788,1
6838,0.2294763160673827,0.5154819267721226,1.613332991348208,-0.0740513464010134,1.5895320456122566,0.6113299997597337,1
6850,0.2678438219908442,0.4662503913858666,1.616316113826298,-0.0783998290174933,1.8545244967540493,0.590474174553627,1
6861,0.3135768731143411,0.4385354126298399,1.571112503647904,-0.0796422598921564,2.106267309475082,0.5790982727197317,1
6872,0.4155007796237995,0.360758601373932,1.3953470024278054,-0.0783998290174933,2.3152037933126826,0.5828902607068905,1
6884,0.4519316551282861,0.3239408550783249,1.2992047432048208,-0.0846119528569997,2.4803144652887177,0.6075380428363655,1
6895,0.4809969854327369,0.3409026389709532,1.208109543751006,-0.104490734894309,2.631156316440673,0.649249662184788,1
6906,0.508900337485803,0.3946821691591886,1.1154071800131542,-0.1312028409415516,2.788113128423736,0.7004412049054218,1
6917,0.5375783417064588,0.4013008232935149,1.0302782255155194,-0.1529452642018875,2.9491470039920924,0.747840821766478,1
6929,0.5724599128757655,0.3706882770593268,0.9462959028462624,-0.1883543558379627,3.271214738430203,0.8426399933610091,1
6940,0.6038491996829861,0.3557971524990454,0.8469411947795121,-0.2100967689203621,3.4454982357207182,0.8919354954923775,1
6951,0.6387307708522928,0.3773069311936531,0.7283117936501684,-0.2355664440929416,3.6187625172107127,0.9393350812896432,1
6963,0.7569318972930368,0.4898308294128212,0.4639755627229938,-0.2678694636313273,3.7838732058853486,0.9905266240102768,1
6974,0.8247520596047442,0.5560241486917055,0.3148269577157223,-0.2989300522950497,3.947964678759464,1.039822188269227,1
6985,0.9003250932002818,0.630486549428734,0.1535184161547232,-0.3144603517158792,4.10492174122154,1.0777418817580715,1
6997,0.9677579294281942,0.6863367389493162,0.0234151778443698,-0.3138391413675159,4.229264348929177,1.1137655657214418,1
7008,1.0433309630237315,0.724394847463645,-0.078924532424779,-0.3088694484026726,4.313858091470334,1.16685308690376,1
7020,1.1169641913963293,0.7670043397477639,-0.1883752397541769,-0.3293694407883454,4.379087251458225,1.305259918435979,1
7031,1.192924551075662,0.8303000915484868,-0.3081531524362071,-0.3554603670210338,4.365837629736065,1.3355956670142968,1
7042,1.2619098664427195,0.8935958433492097,-0.4146226170118237,-0.366642173647447,4.337299988087906,1.3261157436420854,1
7054,1.328180724419247,0.9895714117486568,-0.6330653789392685,-0.3480058224848008,4.306723681058295,1.284404124293663,1
7065,1.3735232746549837,0.965577519648795,-0.7237019256617324,-0.3188088343323591,4.276147624507695,1.2351085289709225,1
7076,1.440956110882896,0.9316539518635386,-0.7858850855216567,-0.3026573245631663,4.255763592373495,1.200980792405446,1
7087,1.553347346066715,0.9109710813147452,-0.8425625328810604,-0.3132179310191526,4.230283548031096,1.197188804418287,1
7099,1.672323124675049,0.9109710813147452,-0.8953376725753635,-0.3504906638782542,4.165054638522218,1.2237326271370277,1
7110,1.740146461790722,0.9378591519249576,-0.9588967906293404,-0.4405663577717322,3.921465435315145,1.31473984180819,1
7121,1.762624073866693,0.9841931198330522,-1.0474675203364163,-0.462308781032068,3.787950002293029,1.305259918435979,1
7133,1.7924640563387335,1.0429374878639848,-1.1394819049772422,-0.4598239294606782,3.670741804997432,1.248380440330293,1
7144,1.844784825690711,1.170355899611245,-1.234477532371849,-0.4331118132354991,3.5779944529423147,1.1820209456610231,1
7155,1.8602842186504407,1.2464755056077137,-1.2831229177596843,-0.3970815621407426,3.5158231574377963,1.1289334244787057,1
7167,1.9033028123834077,1.2832932519033204,-1.3783478715199668,-0.3591876392891504,3.4628246538505576,1.0739498937709129,1
7178,1.9959277180778208,1.2609531760950876,-1.4765559477583396,-0.3256421685202288,3.372115716697881,0.9924226335357516,1
7189,2.1032773645643745,1.2464755056077137,-1.539656413080966,-0.2989300522950497,3.210062642027605,0.8995194404029047,1
7201,2.185438116388392,1.2584724516576442,-1.5768298410121002,-0.2268694686820454,2.720846071190031,0.7781765703447958,1
7212,2.2152812736643988,1.2390299433275729,-1.5910555945812157,-0.1840058630435464,2.4803144652887177,0.7819685272681641,1
7224,2.2106301858548933,1.2080005540526668,-1.5878431457374502,-0.1529452642018875,2.2927813462760427,0.8255761561420614,1
7235,2.1021153863129896,1.1906253160871312,-1.6550752450908528,-0.1349301132096682,2.1623234103680806,0.876767636735114,1
7246,2.021119787544322,1.212965391895364,-1.7096849957105595,-0.1138089206535685,2.0889408746466422,0.8938314739540616,1
7258,2.0195673084051764,1.2712963058533897,-1.7663624430699636,-0.0870968044283895,2.058364834794644,0.8710797013500616,1
7269,2.1090904306252645,1.337486236164463,-1.8253331540861224,-0.0839907425086363,2.0318655913503245,0.8274721346037456,1
7280,2.218767208418553,1.3809260255622071,-1.88086208989284,-0.1722028358908335,1.8382172610275296,0.7231930396370032,1
7291,2.2780630220828058,1.4057468258078831,-1.934325208684169,-0.1591573778634574,1.6669913777413743,0.6776894323014216,1
7303,2.282326783808516,1.4272599934703016,-1.9838878995347065,-0.0951725593129859,1.4804774578306197,0.6189139446702608,1
7314,2.277288369915216,1.453734610007607,-2.0281742042503987,-0.0336725821559678,1.2898868751009918,0.5411786102946773,1
7325,2.285815893366636,1.486831269647049,-2.117203586688825,-0.0249756067450716,1.1105072988078728,0.4482754482256209,1
7337,2.2451212561364398,1.4553884262992358,-2.169061420920426,-0.0603846882032104,0.9545694354477172,0.3496843197077215,1
7348,2.2044297937102084,1.4136058421609314,-2.2248196830928197,-0.0883392251251162,0.8220732182261211,0.275740973319297,1
7359,2.1784630720761173,1.406987188026605,-2.283331741377627,-0.0815058909372465,0.7018074737205674,0.2435092773430857,1
7370,2.160636547809652,1.4285003556890234,-2.347580718252939,-0.052308933318614,0.5856184922254913,0.2586771361003492,1
7382,2.1664496138705416,1.452080793715978,-2.395996777275099,-0.0181422827351383,0.333875662805858,0.3534763076948804,1
7393,2.201328010235883,1.483933702168888,-2.411829695128252,-0.0206271241285918,0.1922066202697817,0.38949996059446,1
7404,2.25519808392304,1.5356459619925868,-2.405863450172072,-0.0100665278505419,0.0423839682197459,0.3970839055049872,1
7415,2.3706879277772197,1.6270735355900543,-2.3950775920880885,0.0234789123845703,-0.1176306915480891,0.3800200372222487,1
7427,2.410992064119656,1.63534600601601,-2.3911771641472965,0.0619940557624623,-0.2919141554414028,0.3439963843226692,1
7438,2.418744935403486,1.6287273518816836,-2.3842936137284143,0.0812516274514083,-0.4835240708617572,0.2984927769870877,1
7449,2.4024677154722007,1.6324518275056592,-2.365248247031496,0.0769031448349284,-0.6863451931018306,0.2454052558047698,1
7460,2.3827013859827946,1.6448622276284972,-2.323027759331192,0.0682061796019686,-0.8810127058279446,0.188525746635293,1
7472,2.360998426074414,1.65809953589715,-2.275989538227394,0.1160394883832473,-1.1939076984445791,0.0937265750407618,1
7483,2.344333880059333,1.68540444954808,-2.227573479205234,0.1756758446731118,-1.323346184771609,0.0349511184733915,1
7494,2.332320421853758,1.7114656120124778,-2.164702340248283,0.2309636878126871,-1.438515983863366,-0.0352002709916647,1
7506,2.3082935054426077,1.6812665198511971,-2.092881833857062,0.2763121552005124,-1.5312633359184833,-0.1091435863162986,1
7517,2.3365841835794683,1.506687232050028,-1.9554363923964757,0.3111000466661606,-1.6036266558394012,-0.1755030188579867,1
7528,2.371849906028604,1.446289047727466,-1.9088549442997196,0.3222818634705103,-1.6708939802507197,-0.2304865185019887,1
7540,2.394327518104575,1.4144327503067458,-1.858604274352156,0.306751543693808,-1.752430108787517,-0.2703021904525178,1
7551,2.417970283235896,1.4057468258078831,-1.7888495849763228,0.2781757964235389,-1.8502734730508343,-0.2930539941203086,1
7562,2.4319203718604463,1.4011954420380932,-1.7103748545318949,0.2452515665367899,-2.066344233711668,-0.2342785064891476,1
7574,2.428431262302326,1.3974743553819282,-1.6362592047596098,0.2502212595016331,-2.167245328869552,-0.1698150524091437,1
7585,2.412931869342596,1.4318079882722812,-1.5731587394369837,0.266372769270826,-2.2589734818227494,-0.1281034330607211,1
7597,2.286203219450432,1.5708098919965652,-1.4852759888269345,0.2955697268894584,-2.327260005335988,-0.126207454599037,1
7608,2.1900892041978977,1.6105252057703336,-1.4595763980768095,0.3434030662045462,-2.344586440164428,-0.1413753133563006,1
7619,2.159474569558267,1.588598584035008,-1.4308936848485945,0.4067666438728452,-2.3119719854099885,-0.152751215190196,1
7631,2.209468207603509,1.5174438158812371,-1.389819828976668,0.46329692806502,-2.267127108035309,-0.1736070403963026,1
7642,2.293565589846501,1.4185706800036286,-1.335210078356961,0.4937363165583157,-2.252858270512629,-0.2210066261935681,1
7654,2.3613857521582085,1.325489290114532,-1.267977979003558,0.4719939034759163,-2.437333792219545,-0.3613094051236807,1
7665,2.358287143487849,1.2592993598034588,-1.178260617468105,0.4278878567848176,-2.6136556877139,-0.4068129503316809,1
7676,2.2687608464637954,1.2183436838109687,-1.0642196233765795,0.3732212443494785,-2.763478089284923,-0.4485245696801034,1
7688,2.0304187883593667,1.1815259375153615,-0.8076842483309896,0.3185545912023937,-2.8338029943034004,-0.4731723518095783,1
7699,1.9188053801471032,1.1504999372082665,-0.709017519361266,0.2825242790400187,-2.8113805639653617,-0.4542125361289466,1
7710,1.8785012438046669,1.1401568074499644,-0.6493569495237721,0.2701000415389424,-2.721690809216004,-0.4181888521655763,1
7722,1.884701635949352,1.1306405858374768,-0.6209054423855412,0.2806606378169923,-2.60957887460762,-0.4087089287933651,1
7733,1.8753994603303412,1.086377277261729,-0.5917640764259752,0.311721257014524,-2.5025627017284227,-0.4295647539994717,1
7744,1.9048521167185872,1.039629855280727,-0.5332520181411675,0.3763272960912953,-2.3119719854099885,-0.495924155477369,1
7755,1.966475061689575,0.9829527576143304,-0.4455985938967936,0.3738424546978419,-2.24980067320687,-0.4826522751817895,1
7767,2.0199546344889714,0.9093172650231164,-0.3501443137708357,0.3434030662045462,-2.212090206244231,-0.4087089287933651,1
7778,2.09320371158174,0.8708423134680696,-0.2457406662106073,0.2881151823532253,-2.1947637881143915,-0.3120138408647311,1
7790,2.104442517619725,0.9610261358790048,-0.2179752584450939,0.2191606606599742,-2.193744572313871,-0.266510202465359,1
7801,2.090489254191209,1.0706558555878225,-0.2110917080262118,0.1570394833325291,-2.208013409836552,-0.3120138408647311,1
7812,2.024993048382272,1.114505710090663,-0.2184339111764449,0.1278425155359603,-2.2304358401745907,-0.4295647539994717,1
7824,1.9203546844822827,1.0723096718794514,-0.238857115791725,0.1408879633853999,-2.2273782428688307,-0.5565956215702141,1
7835,1.8230818657823296,1.012738395702704,-0.2553780127419042,0.2179182399632475,-2.068382648614109,-0.6324349774841135,1
7846,1.800991579790154,1.0061197415683778,-0.2335788499325711,0.2533273214213863,-1.978692893864751,-0.5490117077234777,1
7858,1.852534522170576,1.0239084336068205,-0.1908997095009161,0.2701000415389424,-1.9613664590363111,-0.4447326127567353,1
7869,1.905629943690143,1.0388029471349125,-0.1156374279002539,0.268236400315916,-2.0367873929615894,-0.397333089087051,1
7880,1.856023631728696,0.9961900658829832,-0.0695165122591577,0.2527061008950865,-2.171322141975832,-0.4314607324611558,1
7892,1.7428577443772868,0.9266925029886518,-0.0211004532369978,0.221645512231364,-2.3078951723037084,-0.5091960357729486,1
7903,1.5917148519901767,0.8720826756867912,0.0250204624040983,0.1787819065928649,-2.3853545044328266,-0.581243403699689,1
7914,1.444057894357221,0.8236814374141606,0.0670116237387269,0.0862213204162515,-2.256935083618909,-0.6096831738163228,1
7926,1.3425181391275924,0.7872771451914606,0.1032658664828508,0.0595092041910725,-2.0806130545357475,-0.5736594898529526,1
7937,1.300664698449976,0.7727960857362757,0.1406686207796608,0.0601304145394358,-1.898175947731273,-0.5167799806834757,1
7948,1.316167266213672,0.7699019072259252,0.192065922555602,0.0744182932635386,-1.7697565436159568,-0.4542125361289466,1
7960,1.391737125005244,0.7761071072873442,0.3143683049843713,0.0868425409425513,-1.7167580567273184,-0.3954371106253668,1
7971,1.371199318152214,0.7628697990186917,0.3604892206254674,0.0874637411129782,-1.7208348531349975,-0.3688933500342078,1
7982,1.311516178404167,0.7339110690761325,0.3907772184134109,0.0750395137898383,-1.7554877227918777,-0.4049169718699968,1
7994,1.2301300787477387,0.714051717705343,0.4020217292287451,0.0551607215745926,-1.7901405757501565,-0.495924155477369,1
8005,1.13130478090864,0.7194300096209476,0.4068394626322391,0.0390092118053998,-1.7993133843660356,-0.5926193055335843,1
8016,1.0266664170086517,0.7413566313562732,0.4164768091635359,0.0750395137898383,-1.6403179237001204,-0.5736594898529526,1
8028,0.9685357563997494,0.7699019072259252,0.4412590944509589,0.1203879709997272,-1.487437674344325,-0.495924155477369,1
8039,0.9863622806662152,0.8046523831569962,0.4878386628234061,0.1564182729841658,-1.3579990544284886,-0.4466285912184193,1
8050,1.0328668091533364,0.8418835835255104,0.578933862277221,0.1713273620566319,-1.2907318636059766,-0.4580044930523148,1
8061,1.0103891970773655,0.7926554371070653,0.6053214321243725,0.1638728175203988,-1.2734054287775367,-0.5281558825173711,1
8073,0.9805492146053248,0.6991605931450615,0.6126636352746057,0.1377819014656467,-1.275443843679977,-0.6324349774841135,1
8084,0.955357145138824,0.5944957112789414,0.5936182685776875,0.0992667682656912,-1.2744246278794569,-0.7348180629253811,1
8095,0.9197040966058928,0.5026546836085666,0.567689351461887,0.0539183008778659,-1.267290217467417,-0.7992815480691756,1
8107,0.8662213490025306,0.4472213371287023,0.5686085366488978,-0.0019907729659455,-1.1939076984445791,-0.7291301275403287,1
8118,0.8104146448963987,0.4476347912016095,0.6000431662652186,0.009191043838404,-1.1082947568015016,-0.6058911858291638,1
8129,0.7720471389729374,0.475353158925447,0.634233471718263,0.0352819497152196,-1.0114705248457008,-0.499716143464528,1
8140,0.8092526666450138,0.4861097427566562,0.6851721207628535,0.0551607215745926,-0.9452224162349028,-0.4504205792055782,1
8152,0.8274665169952743,0.4947956672555186,0.6973339370408894,0.0551607215745926,-0.9278959981050638,-0.4561085145906307,1
8163,0.8096399927288087,0.4914880346722608,0.7067419572065107,0.0421152737251529,-0.9431840180310632,-0.4902362200923167,1
8174,0.7720471389729374,0.4827987212055877,0.7253286711720782,0.0209940709911169,-0.971721659679222,-0.520571937606844,1
8185,0.7205041965925157,0.4745262507796325,0.7441447115033207,-0.0026119833143089,-0.9941441067158618,-0.5338438179024234,1
8197,0.6643069915986234,0.4658369373129595,0.7606656084535001,-0.0405059061659011,-0.9452224162349028,-0.4921321985540009,1
8208,0.6154753318047664,0.4666638454587739,0.7840700558225614,-0.0373998544240843,-0.8555326614855451,-0.4314607324611558,1
8219,0.5716852607081755,0.4782473374357975,0.8065571977289206,-0.011930158895632,-0.7281324564721492,-0.3537254912769442,1
8231,0.5461058651578794,0.4827987212055877,0.8246833792388283,0.0178880090713637,-0.5895210947348365,-0.2873660587352562,1
8242,0.5430040816835541,0.434397482932957,0.8496949908919265,0.0346607291889199,-0.4661976527319182,-0.2513423437080954,1
8253,0.5534682355539495,0.4037849366987689,0.8432700932043954,0.03031224657244,-0.3765078979825605,-0.245654408323043,1
8265,0.5720725867919705,0.4041983907716761,0.8311082769263594,0.0122971057581571,-0.3377782319180015,-0.2627182455419907,1
8276,0.5864100015003157,0.4236408991017477,0.816882523357244,-0.0069604659307888,-0.3428742441262016,-0.2854700802735721,1
8287,0.5825367406623659,0.4306730073089813,0.8054086861762346,-0.0380210647724477,-0.3805847110888407,-0.2949500036457833,1
8298,0.5534682355539495,0.4257081694662838,0.7964611984662728,-0.0479604507021342,-0.3693734875705208,-0.277886135363045,1
8310,0.508125685318213,0.4236408991017477,0.7909536062414433,-0.0516877229702507,-0.3224902119920023,-0.2437583987975682,3
8321,0.4643324394176563,0.4190895153319576,0.7838407294568855,-0.0454755991307443,-0.2419732992557256,-0.1849829422301979,3
8332,0.4468932412349858,0.3880635150248623,0.7473571603470867,-0.031187730584578,-0.146168333196248,-0.1167275312268258,3
8344,0.4674342228919816,0.3677940985489762,0.724870018440727,-0.0137938001186585,-0.06361298885893,-0.0560560961977713,3
8355,0.4868100514936271,0.3744127526833026,0.7039881610940959,-0.0038544040110356,-0.0085761037664519,-0.006760500875031,3
8366,0.5011506410059379,0.4116439530518169,0.6911383657190338,-0.0044756143593989,0.0158847247754266,0.0311591615500232,3
8377,0.5069637070668281,0.4534265371901214,0.681730345553412,-0.0038544040110356,0.0199615378817069,0.0577029221411822,3
8389,0.4995981618667923,0.4840390834243093,0.6737001633061528,0.0259637639559601,0.0056927170576274,0.0956225845662366,3
8400,0.4871973775774221,0.4885904671940996,0.6748467951345302,0.035903160063583,0.0036543188537877,0.1069984864001319,3
8411,0.4813843115165319,0.4815583589868661,0.6810423664563858,0.0278274051789866,0.0056927170576274,0.1145824002468684,3
8422,0.4813843115165319,0.5096901807836107,0.6867792850468908,0.0085698334900406,0.0148655256735068,0.1221663451573955,3
8433,0.4747965932880518,0.5403027270177988,0.6798957346280085,-0.0063392555824254,0.036268756909626,0.1392301823763433,3
8445,0.4689835272271617,0.5585048731291486,0.6629161849464782,-0.0069604659307888,0.0709216265665056,0.1562940506590816,3
8456,0.4674342228919816,0.551059310849008,0.6408876957714698,0.0042213508735607,0.1096512759324637,0.1657739429675022,3
8467,0.4740219411204617,0.5340975269563798,0.6209250236118496,0.0203728606427535,0.1443041455893433,0.167669952492977,3
8478,0.4837114428232672,0.5175491971366587,0.6055507584900481,0.0446001252965428,0.1779377994457023,0.1752538663397135,3
8490,0.4902991610517475,0.4885904671940996,0.5920129840179591,0.0427364840735163,0.1779377994457023,0.1790458543268724,3
8501,0.4961122271126376,0.4658369373129595,0.5768680452618329,0.03031224657244,0.163668961923022,0.1847337897119247,3
8512,0.4995981618667923,0.4695614129369351,0.5624129653270421,0.016645588374637,0.1351313202748631,0.1980056700075042,3
8523,0.4871973775774221,0.5121709052210541,0.5553000885424844,0.0067061922670141,0.102516865520424,0.2169655167519267,3
8535,0.4775078758746167,0.5216871268335417,0.5539222506241225,-0.0038544040110356,0.080094435182385,0.2378213108942426,3
8546,0.4720821358975214,0.5291326891136824,0.5474973529365913,-0.0200059137802284,0.0709216265665056,0.2454052558047698,3
8557,0.4674342228919816,0.5415430892365205,0.5419916404360707,-0.0367786338977846,0.0699024107659849,0.2397172893559268,3
8568,0.4627831350824764,0.5593317812749632,0.5374013536739435,-0.0454755991307443,0.0709216265665056,0.2321333755091903,3
8580,0.4623958089986814,0.5849794896664539,0.5316644350834385,-0.0349150028526945,0.0668448134602254,0.2207574736752949,3
8591,0.4616211568310915,0.6044253869643361,0.5263880489485936,-0.0200059137802284,0.0586912039462658,0.2112775503030837,3
8602,0.4561954168539963,0.5916015327685908,0.5250102110302318,-0.0038544040110356,0.0546143908399856,0.1999016484691883,3
8613,0.4623958089986814,0.5316134135511257,0.5181266606113497,0.0054637715702874,0.0566528057424261,0.1923177346224518,3
8625,0.4670468968081868,0.5196164675011948,0.5197338248953869,0.0079486231416772,0.0566528057424261,0.1923177346224518,3
8636,0.4643324394176563,0.5105170889294253,0.5257000698515671,0.0085698334900406,0.0505375944323063,0.2017976269308724,3
8647,0.4585193733567662,0.5067926133054494,0.5291418450610083,0.0029789199988976,0.0454415822241062,0.2131735287647678,3
8658,0.454255611631056,0.5179626512095659,0.5289125186953328,-0.0094453175021786,0.0444223831221864,0.222653452136979,3
8670,0.4530936333796709,0.5407161810907061,0.5289125186953328,-0.0237331860483449,0.0464607813260261,0.222653452136979,3
8681,0.4550302637986458,0.5535400352864513,0.527993333508322,-0.0206271241285918,0.0484991795298657,0.2207574736752949,3
8692,0.4589066994405612,0.5502324027031935,0.5206511303580889,-0.0187634930835017,0.0454415822241062,0.2188614952136108,3
8703,0.4666595707243918,0.5580914190562415,0.5139969063048822,-0.0162786415121119,0.0291343464975863,0.2093815718413995,3
8715,0.4623958089986814,0.5767070192404987,0.5323542939047738,-0.0113089485472686,0.0036543188537877,0.1923177346224518,3
8726,0.4476678934025759,0.5469213811521251,0.5413017816147354,-0.0075816762791521,-0.0157105141784917,0.1771498448013976,3
8737,0.4364290873645903,0.5328571647376581,0.5442849040928256,-0.0088240969758788,-0.0218257254886115,0.1714619094163452,3
8748,0.433327303890265,0.5382354566532627,0.5536929242584471,-0.0069604659307888,-0.0197873272847719,0.1752538663397135,3
8759,0.4383657177835652,0.5382354566532627,0.5704431475743016,0.0029789199988976,-0.0167297132804115,0.1866297681736088,3
8771,0.4480552194863707,0.5233409431251705,0.5814583320239601,0.0178880090713637,0.0036543188537877,0.2150695072264519,3
8782,0.4561954168539963,0.5113439970752397,0.5812290056582847,0.0160243780262737,0.0107887292658274,0.2245494305986632,3
8793,0.4600686776919461,0.5216871268335417,0.579392515008572,0.0147819471516105,0.0148655256735068,0.2283413875220314,3
8804,0.4604560037757411,0.5411296351636132,0.5819169847553112,0.0141607368032472,0.0209807369836267,0.2302373970475062,3
8816,0.4569700690215863,0.5146550186263081,0.5796218413742474,0.0048425612219241,0.0301535622981069,0.2321333755091903,3
8827,0.4534809594634659,0.5171357430637514,0.574574781605078,-0.0187634930835017,0.0352495578077061,0.2302373970475062,3
8838,0.4496045238215507,0.5568510568375199,0.571591659126988,-0.0473392403537708,0.0291343464975863,0.2207574736752949,3
8849,0.4484425455701657,0.6064926573288723,0.5718209854926634,-0.0634907501229636,0.0158847247754266,0.2074855933797154,3
8861,0.4480552194863707,0.6296596412829196,0.5722796382240143,-0.0585210571581204,0.0056927170576274,0.1942137130841359,3
8872,0.4445661099282505,0.6251082575131294,0.570672473939977,-0.0162786415121119,0.0107887292658274,0.161981986044134,3
8883,0.4352671091132055,0.6002874572674531,0.5690671893802488,0.0011152889538075,0.0158847247754266,0.1449181488251862,3
8894,0.4220884978522796,0.5543669434322658,0.5738849227837428,0.0085698334900406,0.0250575500899069,0.135438225452975,3
8905,0.4104623657304993,0.5051387970138206,0.5844414545020503,0.0017364993021709,0.0484991795298657,0.1430221703635021,3
8917,0.4178279109305349,0.4910745805993535,0.584670780867726,-0.0168998518604752,0.0770368378766255,0.1714619094163452,3
8928,0.433327303890265,0.5278923268949607,0.5777872304488436,-0.0336725821559678,0.0953824551083843,0.2017976269308724,3
8939,0.445731262983601,0.5618158946802172,0.5741142491494182,-0.0361574235494212,0.1004784673165843,0.2150695072264519,3
8950,0.4519316551282861,0.581671857083196,0.5709018003056526,-0.0243543963967083,0.0964016542103041,0.2093815718413995,3
8961,0.454255611631056,0.5887039652904296,0.566313393267834,-0.0050968348856987,0.0892672437982644,0.1980056700075042,3
8973,0.4534809594634659,0.585809786780079,0.5612644537743557,0.0352819497152196,0.0678640125621452,0.1923177346224518,3
8984,0.4484425455701657,0.5733993866572409,0.5566760467365371,0.0464637563416328,0.0607296021501055,0.1961096915458201,3
8995,0.4391435447551207,0.5522996730677296,0.5548414358111333,0.0452213356449061,0.0617488012520253,0.1961096915458201,3
9006,0.4348797830294105,0.5221005809064488,0.554151576989798,0.0321758877954665,0.0709216265665056,0.1961096915458201,3
9017,0.4434041316768655,0.5262351216355211,0.5548414358111333,0.0116758852318574,0.085190447390585,0.1961096915458201,3
9029,0.4565827429377913,0.5403027270177988,0.5580538846548989,-0.0094453175021786,0.0923248578026248,0.1961096915458201,3
9040,0.4693708533109565,0.5589183272020559,0.5601178219459784,-0.0255968272713714,0.0913056587007049,0.188525746635293,3
9051,0.4763458976232316,0.5725690895436157,0.5598884955803027,-0.0330513616296681,0.0831520491867453,0.1771498448013976,3
9062,0.4728599628690769,0.5762935651675914,0.5585125373862498,-0.0255968272713714,0.0627680003539452,0.1506060842102386,3
9074,0.4635577872500664,0.5729825436165229,0.5548414358111333,-0.0125513692439954,0.0566528057424261,0.1449181488251862,3
9085,0.4573573951053813,0.5556073056509875,0.5495631699519794,0.0004940786054442,0.057672004844346,0.1468141272868704,3
9096,0.4546429377148508,0.5291326891136824,0.5472680265709157,0.0067061922670141,0.0627680003539452,0.1506060842102386,3
9107,0.4569700690215863,0.4906577375586357,0.5454334156455118,0.0029789199988976,0.0719408256684254,0.1581900291207657,3
9118,0.4639451133338614,0.4981066888065871,0.5408431288833846,-0.0106877381989053,0.0821328333862247,0.1657739429675022,3
9130,0.4705328315623416,0.5117574511481469,0.5332715993674759,-0.0249756067450716,0.0902864429001843,0.1695659309546611,3
9141,0.4771205497908217,0.5237543971980778,0.5268467016799445,-0.0336725821559678,0.0902864429001843,0.1733578878780294,3
9152,0.4840987689070622,0.5311999594782185,0.523634252836179,-0.0324301512813047,0.0811136342843048,0.1733578878780294,3
9163,0.4891371828003625,0.526651964676239,0.523175600104828,-0.0094453175021786,0.0444223831221864,0.1695659309546611,3
9174,0.487584703661217,0.5096901807836107,0.5247808846645564,0.0029789199988976,0.0260767491918267,0.1714619094163452,3
9186,0.4782857028461721,0.4952091213284257,0.5257000698515671,0.011054674883494,0.0158847247754266,0.1809418327885565,3
9197,0.4639451133338614,0.4881770131211923,0.5268467016799445,0.0141607368032472,0.0148655256735068,0.1942137130841359,3
9208,0.4472805673187808,0.4741127967067253,0.5339595784645023,0.0104334645351307,0.0230191518860672,0.2093815718413995,3
9219,0.4561954168539963,0.4732858885609108,0.5374013536739435,-0.0013695626175822,0.0342303587057863,0.2245494305986632,3
9231,0.4670468968081868,0.5034849807221917,0.5433675986301237,-0.0181422827351383,0.0423839682197459,0.2378213108942426,3
9242,0.4728599628690769,0.5394758188719844,0.5504804754146815,-0.0287028790131882,0.0464607813260261,0.2454052558047698,3
9253,0.4740219411204617,0.5576779649833342,0.5516289869673676,-0.0262180376197348,0.0434031840202665,0.2454052558047698,3
9264,0.4736346150366669,0.5618158946802172,0.549792496317655,-0.0019907729659455,0.0250575500899069,0.2264454090603473,3
9275,0.4732472889528719,0.5535400352864513,0.5495631699519794,0.0079486231416772,0.0158847247754266,0.2150695072264519,3
9287,0.4713074837299314,0.5361647973209158,0.5502511490490058,0.0135395264548838,0.0097695134653068,0.2112775503030837,3
9298,0.4662690698366312,0.5249947594167994,0.5553000885424844,0.0147819471516105,0.0107887292658274,0.2131735287647678,3
9309,0.4662690698366312,0.5311999594782185,0.5803098204712741,0.0160243780262737,0.0169039405759473,0.2150695072264519,3
9320,0.4674342228919816,0.5233409431251705,0.591095678555257,0.016645588374637,0.0240383509879871,0.2150695072264519,3
9332,0.4685962011433667,0.516308834917937,0.6009623514522295,0.0122971057581571,0.0311727614000268,0.2093815718413995,3
9343,0.4693708533109565,0.5270654187491463,0.6087632073338136,0.0011152889538075,0.0403455700159062,0.1999016484691883,3
9354,0.4654944176690413,0.5456810189334034,0.6085338809681382,-0.011930158895632,0.0515567935342261,0.1866297681736088,3
9365,0.4581320472729712,0.5568510568375199,0.6027969623776334,-0.0144150104670218,0.0780560369785453,0.1866297681736088,3
9376,0.454255611631056,0.5527131271406369,0.5959134119587512,-0.0057180452340621,0.0892672437982644,0.1942137130841359,3
9388,0.4561954168539963,0.5357513432480085,0.5860467390617787,0.0017364993021709,0.0984400691127446,0.1999016484691883,3
9399,0.4720821358975214,0.505965705159635,0.554610229721149,0.0067061922670141,0.1035360813209447,0.2055896149180313,3
9410,0.479060355013762,0.4952091213284257,0.5403844761520336,0.0085698334900406,0.1004784673165843,0.2112775503030837,3
9421,0.4782857028461721,0.4964494835471474,0.5321249675390984,0.0067061922670141,0.0882480446963445,0.2245494305986632,3
9432,0.4697581793947515,0.5105170889294253,0.5270760280456201,0.0011152889538075,0.0699024107659849,0.2435092773430857,3
9444,0.4604560037757411,0.5365782513938231,0.5217977621864663,-0.0038544040110356,0.0515567935342261,0.2586771361003492,3
9455,0.4515443290444911,0.5725690895436157,0.5185853133427007,-0.0013695626175822,0.0393263709139863,0.2529891696515062,3
9466,0.4468932412349858,0.6064926573288723,0.5165213760516213,0.0079486231416772,0.0403455700159062,0.2359253324325585,3
9477,0.4496045238215507,0.6222140790027788,0.5117017629238184,0.0203728606427535,0.036268756909626,0.2150695072264519,3
9489,0.4534809594634659,0.6160088789413598,0.5045888861392607,0.0346607291889199,0.0240383509879871,0.1999016484691883,3
9500,0.444956610816011,0.565123527263475,0.5002298054671177,0.0458425459932695,0.0087503143633869,0.1904217250969771,3
9511,0.4348797830294105,0.5394758188719844,0.5036715806765589,0.0520546596548394,-0.0034800915582519,0.1847337897119247,3
9522,0.4232536509076302,0.52044676461482,0.5089479668114039,0.0539183008778659,-0.0065377055626123,0.1790458543268724,3
9534,0.4186025630981249,0.4972797806607726,0.5144555590362332,0.0514334493064761,-0.0034800915582519,0.1733578878780294,3
9545,0.4228663248238351,0.4633562128755161,0.5197338248953869,0.0446001252965428,0.0036543188537877,0.1695659309546611,3
9556,0.4290667169685204,0.4372916614433075,0.5268467016799445,0.0060849819186508,0.0209807369836267,0.1790458543268724,3
9567,0.4364290873645903,0.4360512992245858,0.5330422730018005,-0.0181422827351383,0.0291343464975863,0.1923177346224518,3
9578,0.445731262983601,0.4592182831786331,0.5360253954798906,-0.0342937925043312,0.0352495578077061,0.2017976269308724,3
9590,0.4589066994405612,0.4939687591097041,0.5383186591366454,-0.038642275120811,0.0311727614000268,0.2036936053925566,3
9601,0.4817716376003269,0.5382354566532627,0.5525462924300696,-0.0305665202362146,0.0169039405759473,0.1980056700075042,3
9612,0.4782857028461721,0.5378186136125447,0.5612644537743557,-0.0144150104670218,-0.0014416933544122,0.188525746635293,3
9623,0.4674342228919816,0.528305780967868,0.5695258421115996,0.0029789199988976,-0.0146913150765718,0.1752538663397135,3
9635,0.4581320472729712,0.5183761052824731,0.5775560243588593,0.0147819471516105,-0.0218257254886115,0.1657739429675022,3
9646,0.450769676876901,0.5146550186263081,0.5844414545020503,0.0178880090713637,-0.018768128182852,0.167669952492977,3
9657,0.4445661099282505,0.5154819267721226,0.58948851427122,0.0060849819186508,0.0179231396778672,0.1828378112502406,3
9668,0.4426294795092756,0.5192030134282876,0.5929302894806611,-0.0007483522692188,0.0423839682197459,0.1847337897119247,3
9679,0.4465059151511908,0.528305780967868,0.5927009631149854,-0.0063392555824254,0.0597104030481857,0.1828378112502406,3
9691,0.4534809594634659,0.5336840728834725,0.5901764933682463,-0.0094453175021786,0.0627680003539452,0.1790458543268724,3
9702,0.4651070915852463,0.5378186136125447,0.5853587599647524,-0.0075816762791521,0.0546143908399856,0.1714619094163452,3
9713,0.4651070915852463,0.5316134135511257,0.5777872304488436,-0.0019907729659455,0.0454415822241062,0.161981986044134,3
9724,0.4612338307472965,0.5146550186263081,0.570672473939977,0.0029789199988976,0.0352495578077061,0.1581900291207657,3
9735,0.4577447211891762,0.4981066888065871,0.5711330063956369,0.0054637715702874,0.0260767491918267,0.1581900291207657,3
9747,0.454255611631056,0.4832121752784949,0.5773266979931839,0.0029789199988976,0.0199615378817069,0.161981986044134,3
9758,0.4515443290444911,0.4749397048525398,0.5803098204712741,-0.0224907653516182,0.0311727614000268,0.1790458543268724,3
9769,0.4527063072958759,0.4823852671326805,0.5780165568145192,-0.0361574235494212,0.0383071718120665,0.188525746635293,3
9780,0.4530936333796709,0.5018277754627521,0.5731969436867164,-0.0405059061659011,0.0444223831221864,0.1961096915458201,3
9791,0.4523189812120811,0.5175491971366587,0.5603471483116538,-0.0361574235494212,0.0484991795298657,0.1980056700075042,3
9803,0.4496045238215507,0.5034849807221917,0.5525462924300696,-0.0268392479680981,0.0484991795298657,0.1999016484691883,3
9814,0.4480552194863707,0.485696288683749,0.5495631699519794,-0.0162786415121119,0.0444223831221864,0.1999016484691883,3
9825,0.445731262983601,0.4666638454587739,0.5491045172206285,-0.0088240969758788,0.0352495578077061,0.2055896149180313,3
9836,0.4395308708389157,0.4554938075546575,0.548416538123602,-0.0075816762791521,0.0240383509879871,0.2131735287647678,3
9848,0.4329399778064702,0.4592182831786331,0.5509391281460325,-0.0137938001186585,0.013846326571587,0.222653452136979,3
9859,0.4279015639131699,0.4736993426338181,0.5557587412738352,-0.0293240893615515,0.0107887292658274,0.2378213108942426,3
9870,0.4267395856617849,0.4943822131826114,0.5592005164832763,-0.0274604583164615,0.0169039405759473,0.2435092773430857,3
9881,0.4306160213037003,0.5125843592939614,0.5626422916927175,-0.0193847034318651,0.0219999360855465,0.2473012342664539,3
9892,0.4368164134483854,0.510103634856518,0.5819169847553112,-0.0106877381989053,0.0240383509879871,0.2473012342664539,3
9904,0.4372037395321804,0.5026546836085666,0.5993551871681921,-0.0050968348856987,0.0230191518860672,0.2510931911898222,1
9915,0.4387530438673602,0.4943822131826114,0.6179419011337595,-0.0038544040110356,0.0219999360855465,0.2529891696515062,1
9926,0.4468932412349858,0.4799045426952371,0.6365286150993268,-0.0044756143593989,0.0250575500899069,0.2510931911898222,1
9937,0.4678215489757766,0.4612855535431693,0.6631455113121536,-0.0088240969758788,0.0291343464975863,0.2473012342664539,1
9949,0.505801728815443,0.4459809749099806,0.7042174874597718,-0.0299453098878513,0.013846326571587,0.2643650714854016,1
9960,0.5519189312187694,0.4335705747871425,0.756304648057048,-0.0380210647724477,-0.0024608924563321,0.2947008200637195,1
9971,0.5984234597058911,0.4166087908945142,0.8198656458353341,-0.0436119680856543,-0.0167297132804115,0.3402043963355103,1
9982,0.6395054230198827,0.3884769690977695,0.8990283553767884,-0.0510665126218873,-0.0197873272847719,0.4027718408900395,1
9994,0.6708978846310689,0.3293191469939295,1.074335203865536,-0.0591422675064837,-0.0055185064606924,0.4786111968039388,1
10005,0.6860099515070041,0.3231139469325105,1.1642818917666649,-0.0672180223910802,0.0301535622981069,0.562034435500784,1
10016,0.6871751045623545,0.3231139469325105,1.2549184384891283,-0.0752937772756766,0.0882480446963445,0.6302898465041562,1
10027,0.651131555141663,0.299533508905556,1.3375229232400243,-0.0883392251251162,0.1708033890336626,0.6814813892247898,1
10039,0.5840860449975458,0.2668503033390211,1.405901654421804,-0.1057331657689721,0.2859731714268188,0.7364649199325827,1
10050,0.5154880557142831,0.2668503033390211,1.4641843863409365,-0.1293392098964616,0.6722506329704887,0.9222712440706954,1
10061,0.4666595707243918,0.2862962006369035,1.5137470771914738,-0.1454907196656544,0.945396626831838,1.0284462864353312,1
10072,0.4554175898824408,0.2937417629170441,1.5422004640540137,-0.1771725288556767,1.2236387497915928,1.1023896638875466,1
10084,0.5205264696075833,0.3591047850823031,1.544954260166428,-0.230596740950162,1.46213182390026,1.1232454580298623,1
10095,0.5484298216606492,0.4430834074318194,1.5522964633166612,-0.295824000553233,1.645588146505255,1.1004936543620716,1
10106,0.5503696268835896,0.5270654187491463,1.555050259429076,-0.3548391464947341,1.7933723836528508,1.0625739919370174,1
10118,0.5185898391886085,0.5659504354092895,1.5302679741416527,-0.3995664137121325,1.9431950357028864,1.0246543295119632,1
10129,0.4705328315623416,0.5436103596010566,1.4694626522000902,-0.4349754544585256,2.1276705407112013,0.9772547437146974,1
10141,0.425190281326605,0.4670772995316811,1.381350575224365,-0.5002027038836603,2.607714687000714,0.8274721346037456,1
10152,0.3879847536545286,0.3872366068790479,1.2808473556049291,-0.5293996716802292,2.8828988953812944,0.8009283740125865,1
10163,0.3771332737003381,0.4004739151477005,1.1691015048944675,-0.541202698832942,3.1621601506485657,0.8350560484504821,1
10175,0.4666595707243918,0.6900578256054811,0.9059119057956708,-0.5157330033044897,3.421037390480239,0.8995194404029047,1
10186,0.5515316051349747,0.8187165995714631,0.7670905061410312,-0.4424299989947587,3.639146566043513,0.9374391028279592,1
10197,0.6387307708522928,0.8646371134066505,0.6211543499775253,-0.3473846121364374,3.7971228276075086,0.9146872991601684,1
10209,0.6918230175678943,0.8518132592109053,0.4559435007514253,-0.2610361294434576,3.9031198013847854,0.8426399933610091,1
10220,0.7108146948897103,0.8116844913642296,0.2668695514249134,-0.1982937417676492,3.984655929921583,0.7686966469725846,1
10232,0.725929936569611,0.7847930317862066,0.0745831532546356,-0.1628846501315739,4.129382586462019,0.7061291713542649,1
10243,0.7774728789500326,0.8013413616059276,-0.0903964898814799,-0.1659907120513271,4.159958626314018,0.7326729630092144,1
10254,0.8511061073226303,0.8360918375369987,-0.2198117490948067,-0.1746876772842869,4.140593793281738,0.806616309397639,1
10266,1.013103654467896,0.8592588214910459,-0.4547772876967395,-0.1970513210709224,4.077403298675301,0.8995194404029047,1
10277,1.083247773282373,0.7918285289612508,-0.5770777904011999,-0.2448846196742647,3.971406308199423,0.9601909064957498,1
10288,1.1634718946874163,0.726878960868899,-0.7030512744050857,-0.3157027825905423,3.818526058843628,0.9469190262001704,1
10300,1.2278061222449683,0.7198434636938548,-0.8242051452811687,-0.3908694484791727,3.621820131215073,0.8786636151967981,1
10311,1.2572587786332143,0.7368052475864831,-0.9132345277195952,-0.5250511788858128,3.2121010402314445,0.7686966469725846,1
10322,1.2599700612197793,0.7665908856748567,-0.9761075464008552,-0.5641875326120682,3.066355201287689,0.7649046900492164,1
10334,1.2599700612197793,0.8675346808848118,-1.0346196046856628,-0.5716420771483012,2.965454223020012,0.7895524721786912,1
10345,1.2995027201985911,1.0255622498984494,-1.0885413762083431,-0.5387178472615523,2.894110102201013,0.8198881896932184,1
10357,1.4428959161058366,1.2427510299837377,-1.176653453184068,-0.4672784739969113,2.834996404002255,0.8274721346037456,1
10368,1.5467564530342697,1.2961171060990655,-1.2142855338465532,-0.3772027801034332,2.773844307599657,0.8179922112315343,1
10379,1.6428704682868032,1.3358324198728344,-1.2565060215468575,-0.2833997630521567,2.699442839953912,0.814200254308166,1
10390,1.7238692418594364,1.3676887172935546,-1.2939068961193587,-0.202642224384129,2.6128106825103137,0.8047203309359549,1
10402,1.7819999024683382,1.3515538415467407,-1.328555854303754,-0.1920816281060792,2.41202795847408,0.7383608983942668,1
10413,1.82463117011751,1.3072871440031824,-1.3641202382265427,-0.2467482507193548,2.301954171590523,0.6814813892247898,1
10425,1.8711356986046312,1.2932229275887153,-1.3944101157387951,-0.295824000553233,2.1949379820127253,0.6094340212980495,1
10436,1.9889526737655456,1.351967295619648,-1.4478732345301244,-0.3262633788685922,2.097094500859203,0.5241148041395203,1
10447,2.050959770016363,1.3900254041339768,-1.4717363346305368,-0.3448997605650477,2.014539156521885,0.4312116110066732,1
10459,2.0966896463358946,1.4347055557504425,-1.4956013144552578,-0.3498694535298908,1.9472718488091667,0.3591642430799328,1
10470,2.1273074557794907,1.486831269647049,-1.524742680414824,-0.3355815646278517,1.893254146120008,0.3231405591165626,1
10481,2.158696742586711,1.513719340257261,-1.5699462905932182,-0.3038997554378294,1.8484092854439296,0.3117646572826672,1
10492,2.218767208418553,1.5182707240270514,-1.6298343070720789,-0.2100967689203621,1.7240666777362932,0.2738449948576129,1
10504,2.316043201922472,1.508754502414564,-1.68467526378177,-0.1672331327480538,1.603800866436336,0.2435092773430857,1
10515,2.419519587571076,1.459939810069026,-1.7406628523198382,-0.1398998061745114,1.438690194460301,0.222653452136979,1
10526,2.513693797600669,1.3908523122797911,-1.8076637455832567,-0.1305816305931883,1.232811575106073,0.1999016484691883,1
10537,2.6001183111503976,1.3668584201799294,-1.9015127411494863,-0.129960420244825,1.0096063372387962,0.1733578878780294,1
10549,2.595079897257097,1.4260162422837694,-1.9285882900936644,-0.1231270860569552,0.8016891860919219,0.1543980411336069,1
10560,2.594692571173302,1.488485085938678,-1.942586597021413,-0.0970362005360124,0.6223097433876097,0.167669952492977,1
10571,2.609804638049237,1.5021358482802378,-1.9563536978591771,-0.0510665126218873,0.4663718466302524,0.2150695072264519,1
10582,2.6373206640185085,1.4938633778542825,-1.970808777793968,-0.0026119833143089,0.3185876428798587,0.2662610499470857,1
10594,2.6710370821324645,1.5195110862457732,-1.9698914723312664,0.0477061770383595,0.0219999360855465,0.2833249182298241,1
10605,2.694292521179991,1.573707459474727,-1.9586488412402407,0.0464637563416328,-0.1217074879557685,0.275740973319297,1
10616,2.7105697411112764,1.6262432384764294,-1.9377669838936105,0.0334183084921932,-0.2613381322880051,0.2454052558047698,1
10627,2.7334346792710424,1.6982283037438255,-1.8462131317084445,0.0191304297680904,-0.39587273101484,0.167669952492977,1
10639,2.730720221880512,1.7060873200968734,-1.7916015013644286,0.0073274127933139,-0.5151193599114781,0.0614948790645505,1
10650,2.728396265377742,1.7023628444728978,-1.7372210771103973,-0.0082028866275155,-0.6088859110685151,-0.0200324122344011,1
10661,2.7252944819034166,1.6982283037438255,-1.6865098747071738,-0.0231119756999816,-0.6741147704815909,-0.0541601177360872,1
10672,2.714443001949226,1.6862313576938943,-1.6348813668412483,-0.0237331860483449,-0.7179404320557491,-0.0579520746594554,1
10684,2.698165782017941,1.6518943358357308,-1.5816475744155942,0.0427364840735163,-0.7658429234347882,-0.0560560961977713,1
10695,2.695454499431376,1.6030796434901928,-1.5348386796774718,0.0775243551832918,-0.7811309433607876,-0.0655360195699825,1
10706,2.7113443932788663,1.5555019243955657,-1.498584436933348,0.096160706345938,-0.8066109877031868,-0.0901837706356668,1
10717,2.722970525400647,1.5062737779771207,-1.4696723973394574,0.0986455579173278,-0.8463598528696658,-0.1356873779712482,1
10729,2.741571701834702,1.4140192962338385,-1.392344298723407,0.0837364790227981,-0.8993583397583041,-0.1830869327047232,1
10740,2.7132810236978413,1.387131225623626,-1.3453060776196086,0.0508122389581127,-0.9503184284431028,-0.1982548225257774,1
10751,2.667163821294515,1.3834067499996503,-1.3028562635536292,0.011054674883494,-0.977836870989342,-0.1773989973196708,1
10763,2.624532553645343,1.382579841853836,-1.274173550325414,-0.0187634930835017,-0.9707024605773024,-0.1337913684457735,1
10774,2.604766224155937,1.3639642416695787,-1.2633895719657398,0.0004940786054442,-0.8993583397583041,-0.0389922589788236,1
10785,2.6105792902168274,1.3267330413010645,-1.2562748154568733,0.0340395188405565,-0.877955108522185,-0.0314083140682965,1
10797,2.623757901477753,1.282466343757506,-1.244114878903146,0.0713122415217218,-0.8861087180361445,-0.0522641392744031,1
10808,2.6276343371196687,1.2390299433275729,-1.2269041231316318,0.1085849438470143,-0.9258575832026232,-0.0901837706356668,1
10819,2.616782857165478,1.177801461891386,-1.180095228393509,0.1377819014656467,-0.9890480945076618,-0.1299994115224052,1
10830,2.6005056372341926,1.1604262239258505,-1.160132556233889,0.1557970626358024,-1.061411481222983,-0.1603351601007231,1
10842,2.566398718232476,1.140983715595779,-1.1504952097025918,0.1620091864753088,-1.1266403907318612,-0.1622311385624072,1
10853,2.5167924062710294,1.1322977910969163,-1.1406285368056197,0.1564182729841658,-1.1765812803147402,-0.1375833564329324,1
10864,2.465249463890608,1.1368457858988958,-1.1225004755714034,0.1483425180995694,-1.215310929680698,-0.1034556509312463,1
10876,2.4315330457766517,1.1504999372082665,-1.1013911715834055,0.1545546419390757,-1.2744246278794569,-0.0503681297489283,1
10887,2.428818588386121,1.155461386083153,-1.080740520326759,0.1576606936808925,-1.3202885874658492,-0.0276163571449283,1
10898,2.446648287456552,1.1451216452926618,-1.055040929576634,0.153933421412776,-1.393671106488687,-0.0029685439516627,1
10910,2.3974293015789003,1.066104471818032,-0.9662408735038828,0.1427516046084264,-1.475207251724085,0.0084073578822325,1
10921,2.324183399290097,1.001981811871495,-0.918283467213074,0.122872822571117,-1.537378547228603,-0.0010725654899786,1
10932,2.235044428349839,0.96185643299263,-0.8742264888630569,0.0967819166943013,-1.571012201084962,-0.0219283906960852,1
10943,2.180399702495092,0.9482022816832596,-0.8267296150279079,0.0644789073338521,-1.576108213293162,-0.0560560961977713,1
10955,2.190863856365488,0.9577185032957468,-0.7757890862590089,0.0352819497152196,-1.5628585915710025,-0.1129355743034575,1
10966,2.2443466039688493,1.0015683577985877,-0.726914374505498,0.0141607368032472,-1.609741867149521,-0.2266945615786205,1
10977,2.298216677656007,1.0652775636722178,-0.6908894581270497,0.0104334645351307,-1.7055468332089987,-0.2892620371969404,1
10989,2.3210816158157725,1.1223681154115217,-0.6695508277733766,0.0154031574999739,-1.8278510427127956,-0.3594134266619966,1
11000,2.1831141598856227,1.1463620075113834,-0.671156112333105,0.0321758877954665,-1.934867215591992,-0.4162928737038922,1
11011,2.076539165566659,1.1438778941061294,-0.6853837456265293,0.0520546596548394,-1.9909233164849909,-0.4333567109228399,1
11023,1.988178021597956,1.1356054236801745,-0.701214783755373,0.0775243551832918,-1.9990769259989505,-0.3916451537019986,1
11034,1.911443009751033,1.088031093553358,-0.7175063543398766,0.1179031194283374,-1.9919425155869108,-0.3006379390308357,1
11045,1.8366446283230853,1.0077735578600069,-0.7172770279742012,0.1719485724049952,-1.9929617146888303,-0.2001508009874615,1
11057,1.7781234668264227,0.9548209358175858,-0.6817107643271038,0.2334485393840769,-2.0704210468179483,-0.1224154666118781,1
11068,1.7513852678287072,0.9581319573686542,-0.6110387694885688,0.2011455096677549,-2.166226129767632,-0.1470632798051436,1
11079,1.7370446783163964,1.0061197415683778,-0.5167311211909883,0.1489637284479327,-2.282415127961309,-0.1773989973196708,1
11091,1.6637987760275943,1.1389164452312428,-0.3457833533743837,0.1042364612305344,-2.380258492224626,-0.1755030188579867,1
11102,1.557220606904665,1.159185861707129,-0.2989744586362611,0.0862213204162515,-2.431218580909425,-0.1470632798051436,1
11113,1.441730763050486,1.143050985960315,-0.2682278081169666,0.1054788819272611,-2.414911345182905,-0.1186235096885098,1
11125,1.350658336495218,1.0971338610929382,-0.2588197879513451,0.1520697903676859,-2.343567224363907,-0.1148315527651416,1
11136,1.3184912227164418,1.0632102933076817,-0.2466579716733091,0.2073576335072612,-2.25489668541507,-0.1413753133563006,1
11148,1.352594966914193,1.066104471818032,-0.1874579342914749,0.2694788311905791,-2.1855909627999117,-0.1963588440640933,1
11159,1.377787036380694,1.0598992717566131,-0.0828249603655711,0.2725848829323958,-2.2161670193505114,-0.2077347458979886,1
11170,1.3715866442360087,1.0416971256452632,0.0353457880324216,0.268236400315916,-2.2467430759011107,-0.2380704634125159,1
11182,1.270434215090175,1.0210142550964698,0.1941317395709901,0.2607818557796829,-2.2467430759011107,-0.2816781233502038,1
11193,1.1770346572281714,0.9846065739059596,0.2230437791648807,0.2570545936895028,-2.1968021863182314,-0.3290776780836788,1
