timestamp,ax,ay,az,gx,gy,gz
0,0.236572,-0.206177,1.061646,27.099607,72.08252,2.868652
16,0.261108,-0.216309,1.074585,24.719236,81.787102,9.887695
32,0.299438,-0.285645,1.028198,20.996092,80.871574,15.86914
48,0.316895,-0.31543,1.016357,9.58252,71.044922,26.733397
65,0.355591,-0.312012,1.030762,7.751464,59.814449,28.381346
83,0.198242,-0.240234,1.035889,60.729977,24.414061,31.066893
101,0.316284,-0.501221,1.065186,110.168449,6.04248,20.812986
118,0.333252,-0.595337,1.116089,134.094238,17.883301,6.04248
136,0.323975,-0.543823,1.07666,93.872063,40.52734,39.550781
154,0.383423,-0.556274,1.007202,62.07275,43.945309,68.786621
171,0.41687,-0.429687,0.977539,51.330563,42.846676,76.843262
188,0.441284,-0.301392,0.915771,38.818359,38.879395,81.970207
205,0.453003,-0.253418,0.885986,44.677731,32.714844,71.411133
223,0.478149,-0.190552,0.854126,56.03027,27.709959,63.659664
241,0.502075,-0.200562,0.844116,88.073723,15.624999,53.283688
259,0.530762,-0.260742,0.803833,106.811516,5.126953,52.062984
276,0.541016,-0.282349,0.790649,105.102531,-5.249023,55.114742
293,0.53186,-0.321533,0.807983,105.651848,-12.145995,56.518551
311,0.494629,-0.329712,0.855469,84.167473,-26.123045,62.866207
327,0.486938,-0.320435,0.852051,51.513668,-31.86035,71.777344
344,0.476196,-0.284912,0.838867,39.489746,-31.494139,74.890137
361,0.472412,-0.272217,0.85144,32.348633,-23.254393,75.805664
378,0.470093,-0.276855,0.843506,30.395506,-15.136718,75.683594
395,0.473999,-0.266602,0.777344,23.193357,-15.319823,76.843262
411,0.480713,-0.221924,0.731934,15.319823,-23.742674,78.00293
428,0.481445,-0.211914,0.742676,17.578125,-34.179687,74.829102
445,0.478882,-0.17395,0.777344,32.287598,-34.362793,68.54248
462,0.478516,-0.177368,0.797852,37.475586,-29.113768,65.307617
479,0.477661,-0.199829,0.811279,36.132812,-9.033203,59.570309
496,0.483398,-0.230225,0.810059,22.644041,13.610839,56.518551
513,0.505249,-0.229736,0.791138,17.39502,20.26367,55.603024
530,0.52124,-0.20874,0.784546,9.887695,21.484373,54.199215
546,0.555176,-0.137573,0.772583,8.605957,16.357422,51.757809
563,0.570679,-0.086792,0.751465,11.352538,15.319823,50.170895
580,0.581421,-0.076904,0.731567,16.235352,15.808105,45.471188
597,0.583252,-0.086792,0.735229,21.850584,19.287109,39.367676
614,0.584106,-0.110962,0.733765,20.1416,21.362303,36.621094
632,0.589478,-0.118042,0.703369,9.094238,22.888182,29.907225
648,0.596924,-0.101563,0.689819,-2.990722,19.65332,22.3999
665,0.618774,-0.0979,0.674072,-7.446289,15.747069,19.226074
682,0.624878,-0.123901,0.681519,-4.211426,5.676269,14.038085
699,0.622314,-0.130981,0.689575,-0.671387,-2.563476,10.19287
716,0.617432,-0.157959,0.703369,-1.098633,-5.126953,8.605957
733,0.620483,-0.193726,0.716919,-5.004883,-7.690429,7.019042
750,0.626831,-0.195435,0.724121,-11.901855,-8.605957,7.385253
767,0.633179,-0.178223,0.736084,-13.916015,-9.70459,7.751464
784,0.633423,-0.152588,0.756592,-12.08496,-11.352538,7.324218
801,0.628662,-0.148437,0.765381,-5.004883,-8.850098,6.774902
818,0.616943,-0.161987,0.761597,-1.403808,-3.234863,7.629394
835,0.625122,-0.180786,0.747192,-1.708984,-1.342773,7.263183
852,0.643433,-0.184937,0.744019,-3.356933,-0.915527,6.225585
869,0.647095,-0.176392,0.73877,-6.225585,-2.685547,7.080078
886,0.642944,-0.152832,0.726929,-6.835937,-3.723144,6.896972
903,0.635376,-0.138184,0.724365,-5.187988,-5.859375,4.821777
921,0.630981,-0.140015,0.725464,-1.89209,-6.225585,3.234863
937,0.623291,-0.1521,0.726807,-0.549316,-5.554199,2.929687
954,0.625366,-0.165649,0.718872,1.281738,-4.760742,1.464844
972,0.625488,-0.179321,0.718628,2.13623,-6.469726,-0.549316
988,0.61792,-0.208252,0.735229,1.403808,-7.873535,-0.671387
1005,0.612671,-0.21167,0.759399,0.0,-9.765625,0.305176
1022,0.61145,-0.210449,0.764526,0.549316,-10.253905,1.037598
1039,0.602661,-0.220581,0.776611,2.502441,-10.864257,1.281738
1056,0.592773,-0.234863,0.790405,2.624511,-10.803222,1.220703
1073,0.582764,-0.227905,0.79895,2.075195,-9.887695,1.403808
1090,0.57666,-0.215942,0.804321,2.380371,-9.94873,2.868652
1108,0.572021,-0.183228,0.818237,3.356933,-10.0708,3.479004
1125,0.570801,-0.157349,0.82312,6.469726,-9.338379,3.173828
1142,0.569702,-0.15625,0.824585,8.972168,-8.728027,0.366211
1159,0.566895,-0.164062,0.829956,9.216309,-8.850098,-1.342773
1176,0.561035,-0.16748,0.828979,6.04248,-8.178711,-4.455566
1193,0.558594,-0.168945,0.829712,4.02832,-6.16455,-7.019042
1210,0.554687,-0.17334,0.833984,4.089355,-5.065917,-8.056641
1227,0.55542,-0.175293,0.828125,4.577637,-2.563476,-9.82666
1244,0.557983,-0.177734,0.823242,6.16455,-0.793457,-11.047362
1261,0.562378,-0.187134,0.812866,6.04248,-1.159668,-12.451171
1277,0.557983,-0.193115,0.808472,5.798339,-1.953125,-13.427733
1294,0.555786,-0.201294,0.805786,6.958007,-3.723144,-15.624999
1311,0.554077,-0.222656,0.80249,7.8125,-4.760742,-16.784668
1328,0.545166,-0.24707,0.801514,6.896972,-4.760742,-16.357422
1345,0.540161,-0.25293,0.802612,3.967285,-2.685547,-14.22119
1362,0.547363,-0.244629,0.799561,5.004883,0.0,-12.329101
1379,0.564941,-0.240967,0.790405,7.873535,0.610352,-11.901855
1395,0.57019,-0.245239,0.784668,15.380858,-1.281738,-11.474608
1412,0.570923,-0.26123,0.784302,20.812986,-5.493164,-10.0708
1429,0.571533,-0.281006,0.796143,20.568846,-7.019042,-8.911133
1446,0.572021,-0.294434,0.803589,15.441894,-8.117676,-6.591796
1463,0.570435,-0.29895,0.806763,8.300781,-7.568359,-4.577637
1480,0.563354,-0.298218,0.810425,4.272461,-6.958007,-3.479004
1497,0.56189,-0.278076,0.80542,-1.464844,-4.760742,-1.403808
1514,0.562012,-0.269043,0.801758,-0.488281,-3.112793,-1.281738
1532,0.557251,-0.267212,0.798462,2.13623,-2.868652,-1.708984
1548,0.556519,-0.288452,0.806152,6.713867,-3.479004,-1.89209
1565,0.557129,-0.297607,0.810059,5.126953,-6.04248,-1.525879
1583,0.553589,-0.298462,0.818237,0.610352,-9.82666,-1.342773
1600,0.547729,-0.294434,0.824341,-0.915527,-11.230468,-1.098633
1617,0.544189,-0.294312,0.828369,-1.586914,-11.108397,0.183105
1633,0.536865,-0.278198,0.83252,-0.061035,-7.324218,2.685547
1652,0.535889,-0.250977,0.826538,1.831055,-5.249023,3.295898
1670,0.538208,-0.241821,0.820923,7.629394,-2.624511,2.075195
1688,0.533081,-0.255127,0.819092,11.413573,-2.258301,-0.061035
1706,0.529297,-0.260132,0.821777,10.375976,-2.624511,-0.488281
1724,0.521484,-0.256104,0.822632,6.347656,-2.13623,-1.281738
1742,0.518921,-0.25061,0.818481,4.882812,-1.220703,-2.075195
1760,0.521973,-0.243652,0.809204,3.540039,1.220703,-4.089355
1778,0.523682,-0.247559,0.798584,5.798339,2.685547,-6.774902
1796,0.523926,-0.26001,0.797363,10.19287,2.13623,-9.094238
1814,0.523193,-0.292725,0.800293,11.718749,1.770019,-9.399414
1832,0.518188,-0.316528,0.801392,10.925292,2.258301,-7.995605
1850,0.511719,-0.313721,0.801025,6.408691,3.356933,-5.737304
1868,0.511108,-0.307373,0.799072,4.02832,5.065917,-5.004883
1885,0.519409,-0.294067,0.78772,6.469726,6.958007,-4.943848
1902,0.532104,-0.290405,0.775146,8.117676,7.141113,-5.004883
1920,0.54248,-0.302734,0.776123,12.268065,5.371093,-4.943848
1938,0.544434,-0.318726,0.777466,14.343261,1.464844,-4.699707
1956,0.547852,-0.336792,0.782104,11.108397,-1.647949,-3.540039
1974,0.551636,-0.333252,0.78772,8.666992,-2.685547,-3.051758
1992,0.553101,-0.335449,0.796021,4.699707,-4.455566,-2.624511
2010,0.545776,-0.334595,0.809082,1.525879,-6.530761,-1.464844
2027,0.542603,-0.331543,0.815918,-0.427246,-7.690429,-0.549316
2043,0.543213,-0.327637,0.825439,-0.427246,-7.690429,-0.549316
2060,0.542114,-0.339355,0.830566,1.098633,-6.774902,-0.793457
2077,0.537842,-0.345703,0.831543,1.647949,-5.371093,-0.366211
2093,0.529175,-0.348755,0.831299,1.464844,-4.760742,-0.12207
2110,0.526245,-0.347412,0.830444,1.464844,-3.540039,0.549316
2126,0.52124,-0.340698,0.824707,1.586914,-2.685547,1.220703
2142,0.522583,-0.324829,0.816772,2.075195,-0.915527,2.746582
2159,0.523437,-0.315186,0.813232,3.112793,-0.488281,2.990722
2175,0.521362,-0.305786,0.809204,3.723144,-0.610352,2.685547
2191,0.517578,-0.306763,0.812134,4.150391,-0.671387,2.319336
2207,0.515869,-0.307007,0.813721,3.540039,0.732422,2.624511
2224,0.515503,-0.303711,0.805542,2.746582,1.953125,2.807617
2240,0.517578,-0.302368,0.799438,2.319336,3.417969,2.01416
2256,0.522217,-0.301636,0.789795,2.624511,2.990722,1.342773
2272,0.516113,-0.306396,0.7854,3.845215,0.488281,0.183105
2289,0.512329,-0.313354,0.786499,4.394531,-1.89209,0.061035
2305,0.507812,-0.324585,0.790161,3.295898,-2.380371,0.0
2321,0.505859,-0.326416,0.79187,-0.061035,-2.197266,-0.244141
2337,0.505249,-0.325317,0.797119,-0.854492,-1.708984,0.12207
2354,0.514648,-0.311523,0.796143,-0.671387,-0.183105,1.281738
2370,0.519897,-0.311768,0.790894,2.441406,-0.12207,0.549316
2387,0.526367,-0.319824,0.783203,3.845215,-0.915527,-0.183105
2404,0.533936,-0.324707,0.782349,4.516602,-3.723144,-0.671387
2420,0.535767,-0.324097,0.783569,3.784179,-7.751464,-0.671387
2437,0.540161,-0.321167,0.785645,3.540039,-10.0708,-0.854492
2453,0.541626,-0.318481,0.789795,2.685547,-15.014647,-1.464844
2470,0.53894,-0.318359,0.791138,1.525879,-19.470215,-2.13623
2487,0.531616,-0.316528,0.793213,0.976562,-21.301268,-2.258301
2503,0.53064,-0.291626,0.792114,0.732422,-25.390623,-3.051758
2520,0.539062,-0.273193,0.791016,10.559081,-33.752441,-6.652832
2536,0.578979,-0.235229,0.788818,20.38574,-41.625973,-9.94873
2553,0.602783,-0.220581,0.810791,45.349117,-75.256348,-20.202635
2569,0.604736,-0.22229,0.920898,58.715816,-105.285637,-26.550291
2586,0.350708,-0.342407,1.307007,70.251465,-187.316879,-43.029781
2603,0.146973,-0.529541,1.66272,9.399414,-198.303207,-50.842281
2620,-0.090454,-0.553101,2.602661,-89.904778,53.649899,-39.672852
2636,-0.514282,-0.485718,2.672852,-114.19677,283.38623,-26.428221
2653,-0.723511,-0.397217,2.162231,-137.939453,708.007751,-0.244141
2670,-0.540771,0.063843,1.256836,-17.333984,875.793396,-23.498533
2687,-0.156616,0.068237,0.792969,66.52832,894.164978,-52.551266
2703,-0.171997,-0.116455,0.511597,96.618645,885.07074,-137.207031
2719,-0.495361,-0.383057,-0.096191,57.250973,867.797791,-184.143051
2736,-0.611084,-0.675171,-0.793213,-5.92041,818.847595,-265.319824
2752,-0.592651,-0.801025,-1.119995,-59.814449,720.092712,-288.024902
2769,-0.348267,-0.737061,-1.868896,-101.379387,629.882813,-286.254883
2786,0.123657,-0.996216,-2.126221,-60.791012,356.872528,-227.905258
2802,0.21521,-1.182739,-1.8927,38.696289,84.533684,-57.189938
2819,0.075317,-0.92627,-1.503052,36.865234,-17.822266,31.738279
2835,-0.011963,-0.579346,-1.33728,6.530761,-184.509262,125.183098
2852,-0.00708,-0.520142,-1.265747,8.422852,-324.035614,137.573242
2868,0.0448,-0.352783,-0.982788,24.841307,-379.882782,129.150391
2885,0.076904,-0.279663,-0.80127,59.93652,-455.505341,92.712395
2901,0.207886,-0.283447,-0.470459,69.030762,-476.379364,72.08252
2918,0.233643,-0.423706,-0.193604,64.331055,-501.037567,46.264645
2934,0.204712,-0.4729,-0.0625,51.147457,-490.356415,35.217285
2950,0.349121,-0.470825,0.254761,63.720699,-466.186493,26.18408
2967,0.541504,-0.564087,0.333252,59.509274,-425.292938,7.507324
2984,0.564453,-0.622192,0.332642,-23.620604,-421.936005,16.967773
3000,0.515381,-0.610596,0.392944,-79.711914,-425.048798,30.456541
3017,0.410034,-0.466064,0.504639,-132.385254,-434.326141,47.119137
3033,0.349243,-0.395264,0.585571,-121.032707,-448.303192,41.870113
3049,0.249268,-0.209595,0.762939,-110.473625,-454.956024,27.648924
3066,0.210693,-0.170288,0.885498,-68.17627,-452.941864,-13.488769
3083,0.155518,-0.382568,1.108765,-41.564938,-431.213348,-24.597166
3099,0.116577,-0.515747,1.202515,-27.221678,-345.153778,-16.235352
3116,0.10022,-0.525391,1.233887,-27.893064,-243.286118,1.159668
3132,0.065674,-0.437012,1.278687,-23.986814,-196.289047,5.981445
3149,0.04126,-0.351929,1.261108,-4.150391,-115.356438,1.953125
3166,0.03772,-0.342651,1.241333,16.662598,-55.358883,-4.516602
3183,0.059692,-0.385132,1.206055,23.803709,-9.82666,-4.455566
3200,0.094849,-0.414185,1.161865,23.986814,9.460449,-1.953125
3217,0.117676,-0.418091,1.130615,24.841307,38.757324,2.075195
3233,0.170288,-0.428711,1.059814,25.329588,47.912594,2.929687
3250,0.21106,-0.433594,0.990234,24.16992,56.762691,1.953125
3266,0.224121,-0.435181,0.957275,20.080564,55.297848,0.183105
3282,0.248047,-0.423218,0.8927,17.944336,51.696774,-0.793457
3299,0.272827,-0.408936,0.835327,15.136718,41.015621,-2.441406
3316,0.282959,-0.401367,0.810791,14.648437,29.663084,-3.051758
3333,0.296631,-0.389404,0.767822,15.319823,24.841307,-3.051758
3349,0.30896,-0.390503,0.720703,18.005371,18.005371,-3.356933
3366,0.315918,-0.392456,0.693604,21.057127,15.99121,-4.638672
3382,0.330322,-0.389282,0.63501,22.766111,16.357422,-5.126953
3399,0.348267,-0.379639,0.587769,28.564451,18.005371,-4.821777
3416,0.351196,-0.370605,0.571167,37.109375,18.005371,-0.183105
3432,0.341919,-0.338257,0.561157,41.503902,14.526366,3.479004
3449,0.336304,-0.322021,0.567871,51.696774,-2.13623,8.239746
3465,0.321411,-0.316162,0.5896,57.312008,-12.756347,7.568359
3481,0.298462,-0.348145,0.616821,63.720699,-32.592773,1.037598
3498,0.279907,-0.372437,0.630249,61.889645,-44.860836,-8.728027
3514,0.237549,-0.41626,0.647339,57.861324,-47.363277,-14.648437
3531,0.201904,-0.458984,0.658691,45.776363,-46.386715,-26.550291
3547,0.185913,-0.480225,0.669678,30.273436,-43.579098,-34.484863
3564,0.157104,-0.494873,0.688599,21.362303,-42.480465,-37.17041
3581,0.12439,-0.512451,0.703369,5.493164,-39.611816,-43.029781
3597,0.106079,-0.532349,0.708496,-4.333496,-37.231445,-49.926754
3614,0.072144,-0.575684,0.730469,-8.178711,-36.743164,-52.36816
3631,0.040161,-0.602539,0.775757,-17.150879,-39.978027,-51.391598
3648,0.031982,-0.590454,0.796753,-27.404783,-51.025387,-49.072262
3665,0.016235,-0.549438,0.831055,-30.151365,-57.617184,-49.682613
3681,-0.028687,-0.558472,0.85498,-30.395506,-67.932129,-53.710934
3698,-0.059082,-0.584229,0.872559,-30.029295,-74.768066,-57.495113
3715,-0.098267,-0.620972,0.91626,-30.456541,-77.758789,-57.800289
3732,-0.133545,-0.621948,0.945801,-30.09033,-76.965332,-52.551266
3750,-0.149902,-0.617554,0.949341,-27.160643,-68.908691,-43.823238
3767,-0.168823,-0.597778,0.945923,-22.949217,-65.185547,-41.381832
3784,-0.184326,-0.579956,0.959717,-8.911133,-63.232418,-40.100098
3801,-0.195435,-0.584717,0.973755,3.967285,-66.589355,-38.513184
3818,-0.216797,-0.600952,0.984375,6.286621,-66.467285,-37.109375
3835,-0.23999,-0.636475,0.990723,3.540039,-64.697266,-36.071777
3851,-0.25647,-0.657471,0.998657,-7.690429,-57.250973,-31.494139
3868,-0.272339,-0.647583,0.995728,-23.925779,-44.738766,-27.038572
3885,-0.272949,-0.601807,0.973267,-30.2124,-38.879395,-25.512693
3902,-0.276611,-0.564209,0.955078,-33.691406,-31.433104,-24.597166
3919,-0.277832,-0.547729,0.95105,-26.06201,-29.663084,-22.888182
3936,-0.285156,-0.526855,0.944092,-19.287109,-29.541014,-21.179197
3953,-0.293213,-0.520752,0.937012,-5.065917,-29.174803,-17.456055
3970,-0.295654,-0.525391,0.935303,5.249023,-26.672361,-14.831542
3987,-0.301514,-0.538452,0.932983,7.690429,-23.376463,-13.061522
4003,-0.312012,-0.531982,0.924316,6.04248,-15.014647,-9.521484
4020,-0.311401,-0.521362,0.91748,1.647949,-9.033203,-8.728027
4037,-0.304321,-0.498169,0.899536,-0.061035,-7.080078,-9.094238
4054,-0.303467,-0.483765,0.887207,-0.976562,-5.737304,-9.58252
4071,-0.301758,-0.479248,0.883057,0.793457,-6.347656,-9.033203
4088,-0.300781,-0.474854,0.874512,1.953125,-6.774902,-8.789063
4104,-0.307983,-0.489258,0.871582,4.150391,-6.713867,-8.483887
4121,-0.311157,-0.494629,0.869629,3.601074,-4.638672,-7.507324
4138,-0.312256,-0.49707,0.865601,2.929687,-3.723144,-6.958007
4154,-0.30957,-0.489258,0.863281,2.563476,-3.479004,-6.225585
4171,-0.308472,-0.48645,0.862549,3.234863,-5.126953,-5.981445
4188,-0.306641,-0.490601,0.859863,3.540039,-5.92041,-5.981445
4205,-0.310791,-0.493286,0.856812,2.502441,-6.652832,-5.859375
4222,-0.313965,-0.490356,0.85437,0.671387,-6.652832,-5.981445
4239,-0.320068,-0.484009,0.847778,-0.183105,-6.835937,-6.286621
4255,-0.322754,-0.477295,0.843262,-1.708984,-8.728027,-7.507324
4272,-0.324097,-0.472412,0.841309,-2.807617,-13.488769,-9.58252
4289,-0.328735,-0.467529,0.830078,-2.929687,-16.418457,-11.230468
4305,-0.340942,-0.474731,0.819824,-4.02832,-23.254393,-14.892577
4322,-0.345947,-0.473389,0.818115,-6.225585,-29.602049,-16.418457
4339,-0.349976,-0.459595,0.810059,-6.469726,-31.555174,-16.418457
4356,-0.354248,-0.464355,0.803345,-5.187988,-33.26416,-15.686034
4373,-0.35791,-0.470459,0.803711,-4.455566,-30.639647,-12.634276
4390,-0.36792,-0.469604,0.807251,-4.760742,-27.709959,-10.19287
4406,-0.375854,-0.450317,0.802002,-4.516602,-20.996092,-5.859375
4424,-0.378418,-0.442871,0.797119,-2.13623,-15.502929,-4.577637
4440,-0.384644,-0.443237,0.788818,-0.610352,-13.366698,-4.577637
4457,-0.38916,-0.453003,0.7854,1.037598,-8.300781,-3.784179
4473,-0.388672,-0.457397,0.780762,-0.671387,-1.342773,-1.708984
4490,-0.388672,-0.450439,0.770752,-1.953125,1.037598,-0.854492
4506,-0.381592,-0.431396,0.77124,-1.525879,1.159668,0.061035
4523,-0.378174,-0.425293,0.77124,3.234863,-2.624511,0.183105
4539,-0.379272,-0.430298,0.772949,6.103515,-4.882812,-0.183105
4555,-0.384521,-0.441528,0.775757,9.521484,-8.911133,-1.281738
4572,-0.395996,-0.460449,0.785522,9.58252,-10.437011,-1.647949
4589,-0.399902,-0.465698,0.791626,7.141113,-11.901855,-1.525879
4606,-0.400879,-0.465576,0.791626,4.577637,-10.620116,-0.854492
4622,-0.404297,-0.456421,0.787476,4.333496,-9.887695,-0.732422
4639,-0.407837,-0.44458,0.786865,8.361816,-10.19287,-0.793457
4657,-0.409058,-0.440918,0.784668,17.76123,-12.878417,-0.793457
4673,-0.409912,-0.434814,0.780884,30.822752,-17.883301,-0.793457
4690,-0.407837,-0.43457,0.777832,37.841797,-20.996092,-1.220703
4707,-0.403198,-0.422241,0.784302,53.405758,-28.442381,-2.685547
4723,-0.37207,-0.264526,0.768799,67.810059,-33.813477,-2.990722
4740,-0.377808,-0.198853,0.703735,136.962891,-52.36816,-6.286621
4758,-0.414917,-0.302124,0.682007,219.177231,-71.899414,-0.610352
4774,-0.525024,-0.566284,0.739258,275.817871,-50.903316,22.583006
4791,-0.574951,-0.713379,1.0271,302.062988,-0.610352,34.912109
4808,-0.608398,-0.703125,1.180664,352.905243,204.467758,60.18066
4825,-0.888916,-0.649902,1.266968,401.245087,489.746063,76.049805
4841,-1.161987,-0.733765,0.999756,401.855438,617.858887,73.303223
4859,-1.008301,-0.970337,0.727417,282.287598,757.507263,46.630856
4876,-0.845093,-1.002319,0.55603,78.918457,757.995544,-9.887695
4893,-0.439453,-0.919434,0.134277,-16.540527,723.937927,-41.748043
4909,-0.177002,-0.822998,-0.235474,-77.941895,602.172852,-82.397453
4926,-0.057861,-0.894165,-0.376343,-72.021484,444.457977,-107.604973
4943,0.14502,-0.967407,-0.531494,-82.458488,353.149384,-112.792961
4960,0.200806,-1.075073,-0.447998,-63.720699,149.353027,-85.388176
4977,0.163086,-1.134277,-0.298828,13.427733,-17.089844,-18.615723
4994,0.114136,-1.128784,-0.168213,30.151365,-76.477051,12.756347
5011,0.152466,-1.042236,-0.114014,12.145995,-182.617172,56.701656
5027,0.162842,-1.006714,-0.092651,-27.9541,-302.490234,84.350578
5044,0.046265,-0.958862,-0.074707,-56.335445,-373.35202,93.383781
5061,-0.392944,-0.814087,0.123291,-92.712395,-505.248993,101.806633
5078,-0.634155,-0.735474,0.261719,-67.626953,-564.880371,85.266106
5095,-0.787842,-0.661621,0.527466,-41.259762,-552.978516,66.955566
5112,-0.636963,-0.798584,0.643799,-12.20703,-456.848114,39.367676
5129,-0.564697,-0.900146,0.666138,-80.871574,-335.876434,39.0625
5146,-0.475342,-0.939941,0.666016,-129.943848,-287.780762,41.198727
5163,-0.404053,-0.720215,0.667847,-208.679184,-223.510727,40.588375
5180,-0.392822,-0.604492,0.680298,-223.144516,-190.734848,23.071287
5197,-0.372314,-0.451294,0.701172,-165.405258,-171.142563,-7.629394
5214,-0.335327,-0.460449,0.739502,-138.000488,-160.522461,-19.65332
5231,-0.33252,-0.49292,0.753906,-102.172844,-126.770012,-27.587889
5247,-0.341797,-0.53418,0.765381,-68.054199,-82.580559,-22.216795
5264,-0.366455,-0.543701,0.759277,-55.358883,-59.143063,-18.249512
5281,-0.384521,-0.55188,0.739746,-34.423828,-18.188477,-12.817382
5298,-0.420776,-0.565796,0.698364,-16.357422,5.981445,-10.131835
5315,-0.442261,-0.571777,0.676392,-9.338379,12.145995,-9.94873
5332,-0.45166,-0.592285,0.662842,-0.549316,17.883301,-11.474608
5349,-0.456177,-0.612061,0.657471,2.807617,18.737793,-14.465331
5365,-0.453735,-0.652954,0.648804,2.319336,18.127441,-15.258788
5382,-0.444702,-0.663452,0.640015,-2.990722,14.892577,-14.526366
5400,-0.44104,-0.660156,0.638428,-7.93457,9.033203,-12.390136
5417,-0.438477,-0.650024,0.640259,-8.728027,5.676269,-11.108397
5434,-0.441406,-0.630249,0.641479,-7.141113,0.12207,-8.850098
5451,-0.441406,-0.621338,0.643433,-2.868652,-2.563476,-7.141113
5468,-0.432007,-0.604126,0.655151,0.0,-2.685547,-6.04248
5485,-0.427002,-0.581177,0.668945,6.103515,-1.159668,-3.173828
5502,-0.424072,-0.566528,0.677368,12.20703,0.793457,-2.01416
5518,-0.415161,-0.536255,0.692383,15.441894,2.746582,-2.380371
5535,-0.407837,-0.502197,0.699463,22.216795,8.666992,-5.187988
5552,-0.403931,-0.487671,0.704834,29.296873,15.075683,-11.474608
5569,-0.395996,-0.461548,0.711548,31.433104,18.859863,-14.770507
5586,-0.389771,-0.426147,0.701416,33.26416,27.160643,-20.690916
5602,-0.383423,-0.4104,0.694946,36.010742,33.325195,-27.9541
5619,-0.375,-0.374878,0.682861,38.696289,35.461426,-32.226562
5636,-0.384888,-0.351196,0.66272,47.119137,38.696289,-41.992184
5653,-0.398926,-0.358276,0.651123,58.959957,39.672852,-53.833004
5669,-0.434937,-0.390381,0.629517,64.697266,39.550781,-60.119625
5686,-0.46936,-0.432739,0.605103,72.265625,38.818359,-72.20459
5703,-0.486084,-0.45752,0.596191,74.157715,36.92627,-82.824699
5719,-0.52124,-0.515015,0.581543,72.937012,35.583496,-87.402336
5736,-0.544434,-0.565552,0.560303,64.819336,33.508301,-94.238274
5753,-0.555298,-0.57666,0.553833,53.649899,32.897949,-97.106926
5769,-0.581909,-0.567505,0.539551,49.133297,32.714844,-97.839348
5786,-0.625,-0.562134,0.529297,47.668453,31.188963,-101.013176
5803,-0.647949,-0.576782,0.521362,57.250973,32.287598,-106.811516
5820,-0.674438,-0.630005,0.512939,62.561031,33.569336,-109.497063
5837,-0.691772,-0.717896,0.52002,66.894531,37.414551,-109.802238
5854,-0.697876,-0.749756,0.511841,50.292965,45.166012,-103.576653
5870,-0.698975,-0.72937,0.485596,35.705566,48.46191,-100.341789
5887,-0.685059,-0.673096,0.466919,13.916015,51.025387,-96.374504
5904,-0.677979,-0.64624,0.46167,7.385253,46.142574,-94.177238
5920,-0.675781,-0.603149,0.461792,9.155273,41.015621,-93.078606
5937,-0.681274,-0.572754,0.464722,21.362303,26.794432,-89.965813
5954,-0.685181,-0.563354,0.462036,39.367676,13.671874,-85.876457
5971,-0.697144,-0.576538,0.447876,47.546383,9.765625,-83.740227
5987,-0.707764,-0.619263,0.44043,55.603024,5.615234,-79.833984
6004,-0.710937,-0.643433,0.446289,46.813961,1.708984,-75.012207
6020,-0.716187,-0.664551,0.456055,35.888672,-0.793457,-71.838379
6038,-0.724731,-0.669067,0.463623,9.460449,-4.943848,-64.51416
6054,-0.728882,-0.667969,0.468506,-13.488769,-7.385253,-54.26025
6071,-0.731323,-0.663696,0.488037,-22.460936,-9.033203,-48.400875
6088,-0.729004,-0.635864,0.51416,-33.874512,-14.038085,-36.987305
6105,-0.730225,-0.619629,0.526733,-33.447266,-18.920898,-26.245115
6122,-0.731689,-0.594482,0.552124,-29.724119,-20.26367,-20.1416
6138,-0.73584,-0.572388,0.573608,-19.775391,-21.423338,-7.8125
6156,-0.740967,-0.560791,0.578369,-9.216309,-20.629881,1.037598
6173,-0.744873,-0.546021,0.576416,-4.699707,-19.042969,4.150391
6190,-0.737183,-0.53894,0.577515,1.525879,-16.601562,8.605957
6206,-0.733887,-0.535645,0.581299,5.065917,-17.883301,11.779784
6223,-0.730713,-0.519775,0.57959,5.798339,-18.737793,13.061522
6240,-0.722778,-0.505615,0.565063,5.92041,-18.615723,14.343261
6256,-0.720581,-0.501831,0.560425,4.272461,-18.127441,13.305663
6273,-0.721313,-0.490479,0.557251,2.868652,-18.432617,12.451171
6290,-0.720703,-0.472168,0.55127,0.366211,-19.165039,10.986327
6307,-0.717896,-0.46582,0.544556,-1.647949,-18.676758,8.911133
6324,-0.716553,-0.454102,0.522217,-2.929687,-18.676758,7.690429
6341,-0.724243,-0.443359,0.504028,-5.371093,-20.446775,5.981445
6357,-0.727173,-0.437378,0.499023,-6.225585,-23.620604,4.02832
6374,-0.725098,-0.42334,0.490234,-5.859375,-24.29199,2.746582
6392,-0.716553,-0.417847,0.478027,-3.967285,-23.437498,0.0
6408,-0.717896,-0.417114,0.470825,-2.563476,-23.376463,-2.807617
6425,-0.731445,-0.423096,0.467896,-3.784179,-24.108885,-5.187988
6442,-0.736572,-0.437622,0.439819,-7.019042,-25.878904,-5.615234
6460,-0.741455,-0.441406,0.4646,-16.601562,-34.912109,-4.577637
6477,-0.75061,-0.44458,0.481567,-26.672361,-49.682613,-2.807617
6494,-0.799805,-0.473877,0.546509,-30.456541,-62.316891,1.159668
6511,-0.948853,-0.460693,1.361084,-6.04248,-63.049313,37.902832
6528,-1.043335,-0.254761,1.787109,99.121086,150.817871,97.717278
6545,-1.593872,0.205688,2.181763,163.269028,348.510712,108.032219
6562,-2.226929,0.080688,1.463867,308.59375,770.751892,76.416016
6578,-2.008789,-0.161743,1.039917,341.003387,951.965271,14.831542
6595,-1.339722,-0.313599,0.546387,292.541504,940.429626,-21.179197
6612,-0.91748,-0.390259,0.093384,150.695801,828.247009,-121.704094
6629,-0.654297,-0.667969,-0.270508,34.851074,637.451172,-186.462387
6646,-0.166504,-1.062866,-1.19751,-48.400875,510.681122,-182.739243
6663,0.198364,-0.691284,-0.889038,-72.44873,215.087875,-155.151367
6680,0.262817,-0.693726,-0.560913,65.246582,-4.882812,-80.26123
6696,0.052246,-0.72583,0.019287,90.698235,-69.702148,-36.743164
6713,-0.110352,-0.743164,0.243164,86.059563,-143.371582,10.437011
6729,-0.183228,-0.7948,0.340942,100.83007,-183.227524,21.423338
6746,-0.207031,-0.952515,0.522705,95.825188,-194.396957,24.16992
6762,-0.12207,-0.958252,0.243408,-40.771481,-223.022446,19.287109
6779,-0.134155,-0.891479,0.086792,-189.758286,-306.945801,-9.338379
6795,-0.28125,-0.651978,0.228149,-224.365219,-364.562958,-31.188963
6812,-0.675537,-0.515259,0.381958,-210.388168,-482.60495,-64.208984
6829,-0.908325,-0.493652,0.400146,-175.292953,-570.922852,-53.955074
6846,-1.158691,-0.594604,0.517212,-171.874985,-589.477539,-29.846189
6863,-1.084839,-0.651245,0.565063,-177.73436,-550.292969,39.672852
6880,-1.040161,-0.64502,0.520264,-228.027328,-461.486786,75.744629
6896,-1.019653,-0.636475,0.520996,-258.911133,-420.898407,84.533684
6913,-1.08728,-0.479614,0.485474,-267.76123,-356.445282,105.773918
6930,-1.102295,-0.251953,0.594727,-195.678696,-299.194336,87.951653
6947,-0.997803,-0.124146,0.764771,-167.114243,-256.958008,57.495113
6964,-0.890625,-0.308472,0.734131,-117.065422,-164.306625,11.352538
6981,-0.854614,-0.347046,0.710815,-76.171875,-71.472168,2.563476
6998,-0.819336,-0.366943,0.664185,-62.438961,-24.841307,2.746582
7015,-0.803711,-0.418701,0.592896,-32.897949,58.410641,3.662109
7032,-0.798096,-0.446411,0.560913,-5.371093,113.525383,9.643555
7049,-0.779663,-0.446411,0.516235,5.432128,127.746574,14.770507
7065,-0.754639,-0.416382,0.492798,25.695799,134.399414,21.972654
7083,-0.746582,-0.421509,0.480347,41.320797,121.887199,21.118162
7100,-0.728394,-0.453857,0.469971,46.508785,95.703117,17.150879
7116,-0.70459,-0.480469,0.480347,45.532223,80.627434,14.587401
7133,-0.689697,-0.495728,0.479004,38.94043,51.452633,8.972168
7150,-0.660889,-0.518188,0.463501,30.456541,26.977537,5.126953
7167,-0.649048,-0.53894,0.446045,26.06201,17.39502,4.089355
7184,-0.657104,-0.546021,0.446411,17.76123,3.051758,3.784179
7201,-0.66333,-0.546265,0.453857,9.70459,-3.723144,3.967285
7218,-0.676758,-0.531738,0.477783,6.04248,-4.821777,3.967285
7234,-0.682861,-0.506958,0.48938,2.075195,-4.638672,3.845215
7251,-0.681519,-0.510376,0.486938,1.464844,0.671387,1.708984
7268,-0.676025,-0.531494,0.473877,1.220703,5.065917,0.305176
7285,-0.670776,-0.534058,0.467896,1.464844,13.244628,-1.953125
7301,-0.67041,-0.54541,0.466797,0.305176,19.958496,-5.004883
7318,-0.693115,-0.606201,0.469727,-2.441406,22.094725,-6.835937
7335,-0.703003,-0.623169,0.475708,-10.681151,22.15576,-8.300781
7352,-0.688843,-0.619751,0.481689,-18.554687,20.1416,-4.821777
7369,-0.671875,-0.609131,0.477173,-20.874022,19.165039,-1.342773
7385,-0.662476,-0.593262,0.476318,-19.714355,14.953612,7.324218
7402,-0.637817,-0.54187,0.480957,-9.033203,8.666992,13.97705
7418,-0.614624,-0.511963,0.488647,-1.403808,5.493164,15.624999
7435,-0.608521,-0.505493,0.492432,13.97705,-1.037598,16.113281
7452,-0.603271,-0.505249,0.508667,24.597166,-5.126953,13.85498
7469,-0.599487,-0.514648,0.520386,27.038572,-4.577637,12.573241
7486,-0.597656,-0.521118,0.517212,27.038572,0.549316,9.765625
7502,-0.611816,-0.553467,0.517456,19.104004,9.216309,4.882812
7519,-0.632446,-0.595947,0.521118,12.023925,14.282226,1.770019
7536,-0.637817,-0.60437,0.520264,-4.272461,22.033689,-3.662109
7553,-0.6521,-0.628418,0.535034,-16.967773,24.536131,-5.249023
7570,-0.658569,-0.627441,0.558594,-20.690916,26.123045,-4.02832
7587,-0.661133,-0.61853,0.557129,-19.836426,29.357908,0.976562
7603,-0.67688,-0.622803,0.55896,-12.08496,28.625486,5.432128
7621,-0.682983,-0.664917,0.594604,-8.972168,27.160643,7.93457
7637,-0.728149,-0.733521,0.710815,-6.530761,28.747557,16.906738
7654,-0.760132,-0.767822,0.776245,-3.234863,50.537106,30.2124
7671,-0.800171,-0.79126,0.809814,0.366211,66.223145,38.146973
7688,-0.809326,-0.817627,0.828247,9.033203,88.256828,51.086422
7704,-0.782959,-0.802734,0.83728,21.850584,102.844231,60.424801
7721,-0.70752,-0.761108,0.835449,31.127928,110.046379,64.941406
7738,-0.678345,-0.753418,0.838379,57.495113,120.971672,74.279785
7755,-0.621948,-0.759766,0.828491,86.303703,131.896973,81.05468
7771,-0.560303,-0.81543,0.788086,95.092766,137.268066,83.129875
7788,-0.484131,-0.826904,0.72937,96.55761,142.51709,86.608879
7805,-0.442383,-0.813599,0.700195,85.632317,138.000488,89.172356
7822,-0.360718,-0.786987,0.655884,79.528809,134.033203,89.721672
7838,-0.32251,-0.7771,0.634888,69.702148,127.319328,88.74511
7855,-0.24353,-0.755981,0.590088,65.246582,123.291008,86.425774
7872,-0.168823,-0.733765,0.544434,65.551758,121.704094,85.754387
7889,-0.151489,-0.748535,0.529541,66.28418,117.431633,84.533684
7905,-0.105347,-0.741821,0.48291,59.143063,112.731926,81.420891
7922,-0.04126,-0.711548,0.421143,53.100582,110.351555,79.528809
7939,-0.012451,-0.695801,0.391235,42.846676,104.431145,74.768066
7956,0.045044,-0.667236,0.333496,36.682129,97.106926,68.725586
7973,0.123901,-0.61731,0.268799,33.691406,93.078606,65.734863
7990,0.168213,-0.62207,0.235596,28.686522,80.627434,59.692379
8006,0.186279,-0.631714,0.231567,24.108885,62.377926,53.649899
8022,0.222168,-0.631714,0.233032,19.65332,52.24609,51.757809
8039,0.232544,-0.629272,0.237793,6.835937,29.418943,49.682613
8055,0.239868,-0.62146,0.251709,-0.12207,17.272949,47.241207
8072,0.250854,-0.605713,0.272705,-10.986327,-5.432128,38.391113
8089,0.252319,-0.605713,0.292114,-13.427733,-24.963377,27.770994
8105,0.235474,-0.635498,0.344604,-11.535644,-33.02002,23.559568
8122,0.216797,-0.678955,0.395142,-5.676269,-43.945309,17.700195
8139,0.207886,-0.711914,0.418213,-4.699707,-47.241207,13.916015
8156,0.196777,-0.756104,0.453369,-6.774902,-46.508785,12.634276
8172,0.187622,-0.777344,0.480225,-14.953612,-43.090816,11.474608
8189,0.182251,-0.782471,0.501099,-20.935057,-39.733887,11.108397
8206,0.169067,-0.796875,0.53894,-22.338865,-37.597656,10.864257
8222,0.164307,-0.821045,0.578247,-24.29199,-32.470703,9.094238
8239,0.16748,-0.826172,0.607544,-21.484373,-26.550291,9.033203
8255,0.178467,-0.804321,0.629639,-17.39502,-21.850584,10.009766
8272,0.19519,-0.786987,0.603516,-7.8125,-11.96289,9.094238
8288,0.214722,-0.792603,0.588501,2.685547,-7.507324,3.601074
8305,0.255615,-0.835327,0.582397,5.554199,-8.666992,1.708984
8321,0.266235,-0.85437,0.59729,2.197266,-19.104004,2.258301
8338,0.264282,-0.884521,0.665283,-2.319336,-27.648924,4.394531
8355,0.213135,-0.893555,0.796265,-14.22119,-47.180172,14.587401
8371,0.152222,-0.889282,0.896362,-17.333984,-42.66357,35.27832
8388,-0.039673,-0.849731,1.279419,9.70459,-7.873535,50.048824
8405,-0.272461,-0.683228,1.600952,146.362305,172.790512,80.688469
8422,-0.379761,-0.63916,1.573975,258.422852,427.429169,101.318352
8439,-0.447144,-0.781982,1.307861,230.712875,626.89209,87.219231
8456,-0.236206,-0.946899,0.758789,165.222153,691.528259,67.810059
8473,-0.085693,-0.62439,0.156494,-6.408691,736.450134,17.822266
8489,-0.090942,-0.469482,-0.109863,-7.202148,692.382751,-35.583496
8506,-0.104126,-0.620728,-0.5625,49.072262,651.184021,-57.312008
8523,-0.096069,-0.793091,-0.785645,78.186035,535.949707,-83.557121
8540,-0.132446,-0.978516,-1.124878,38.94043,391.052216,-88.378899
8557,-0.130981,-0.98999,-1.238403,34.301758,318.237305,-80.26123
8574,-0.12561,-0.980225,-1.292847,39.672852,177.124008,-51.818844
8591,-0.133423,-0.957764,-1.267822,40.52734,38.757324,-31.494139
8608,-0.130981,-0.831787,-1.031738,40.893551,-19.958496,-25.085447
8625,-0.028442,-0.785522,-0.811646,45.593258,-98.449699,-15.258788
8642,0.063477,-0.799316,-0.784668,39.489746,-151.428223,-6.713867
8659,0.252808,-0.827393,-0.759033,30.517576,-184.509262,-2.929687
8676,0.358521,-0.866577,-0.714478,-2.13623,-272.155762,5.92041
8692,0.346191,-0.86731,-0.658936,-45.104977,-372.558563,23.803709
8709,0.169922,-0.801392,-0.413452,-58.715816,-411.254852,33.26416
8726,0.07019,-0.711182,-0.161499,-63.476559,-439.086884,39.306641
8742,0.075806,-0.69043,-0.090942,-65.063477,-425.598114,26.550291
8759,0.163452,-0.645996,0.038086,-69.274902,-411.926239,19.714355
8776,0.252808,-0.625732,0.201904,-71.350098,-383.05661,6.16455
8793,0.302368,-0.642578,0.25061,-60.668941,-352.111786,-4.455566
8810,0.324829,-0.717163,0.315796,-59.692379,-338.012665,-4.943848
8826,0.22876,-0.819336,0.392212,-68.42041,-314.208984,-6.347656
8843,0.208008,-0.871338,0.430298,-84.83886,-289.733887,-12.695312
8860,0.199341,-0.938599,0.520752,-101.623528,-273.681641,-13.122558
8877,0.190796,-0.946411,0.598633,-140.380859,-233.032211,-4.272461
8894,0.196533,-0.943359,0.625854,-166.931137,-191.711411,14.953612
8910,0.207764,-0.835571,0.665283,-162.23143,-171.691879,23.498533
8927,0.229004,-0.697021,0.701538,-130.92041,-131.713867,26.428221
8944,0.250732,-0.657104,0.724121,-80.01709,-92.163078,18.249512
8961,0.268677,-0.64209,0.750366,-51.940914,-74.21875,14.465331
8978,0.271362,-0.684692,0.760742,-1.586914,-45.593258,8.911133
8994,0.269409,-0.725708,0.761475,30.09033,-25.573729,7.324218
9011,0.268921,-0.815308,0.747314,37.780762,-17.028809,7.080078
9027,0.273315,-0.87915,0.713745,35.461426,-3.356933,6.530761
9044,0.27832,-0.890625,0.700073,17.578125,4.02832,6.835937
9060,0.295776,-0.893066,0.674438,6.958007,6.347656,7.263183
9076,0.305786,-0.892334,0.662231,-12.20703,10.253905,8.056641
9093,0.322632,-0.886108,0.648437,-19.226074,12.329101,9.338379
9109,0.333008,-0.859253,0.631348,-23.254393,18.188477,13.97705
9125,0.333862,-0.853271,0.626831,-13.671874,25.085447,19.042969
9141,0.339111,-0.853882,0.619019,-6.530761,28.320311,21.789549
9158,0.338135,-0.868774,0.601074,6.469726,34.667969,27.709959
9174,0.33728,-0.877197,0.592773,13.366698,37.963867,33.081055
9191,0.334473,-0.902588,0.613037,14.160155,37.17041,36.804199
9207,0.330688,-0.9021,0.632202,13.183593,33.26416,49.560543
9224,0.331787,-0.858398,0.646118,13.85498,26.611326,62.866207
9240,0.350952,-0.814941,0.644897,15.441894,23.315428,66.52832
9256,0.363647,-0.800537,0.636475,19.470215,21.301268,69.580078
9273,0.375977,-0.797119,0.613037,21.301268,22.766111,69.824219
9289,0.400269,-0.783936,0.598511,24.719236,28.625486,70.43457
9306,0.414429,-0.772949,0.588257,27.160643,35.644531,74.401855
9322,0.443481,-0.736694,0.561035,28.137205,38.085937,76.35498
9339,0.480347,-0.705933,0.535767,29.846189,39.306641,77.270508
9355,0.498413,-0.692505,0.529663,31.555174,33.508301,76.782227
9372,0.518677,-0.664673,0.533081,32.287598,28.320311,77.514648
9389,0.545776,-0.610107,0.518799,31.98242,19.897461,78.735352
9405,0.559692,-0.584839,0.502563,30.822752,18.554687,77.148437
9422,0.573364,-0.549072,0.46936,31.799314,20.019531,75.134277
9438,0.580322,-0.534302,0.455688,36.865234,22.521971,69.091797
9455,0.612549,-0.500488,0.420898,39.306641,23.132322,65.734863
9471,0.646729,-0.473877,0.376953,41.870113,23.132322,59.143063
9488,0.658936,-0.466309,0.355347,42.66357,21.667479,51.635738
9504,0.675781,-0.449951,0.312134,42.297359,20.38574,47.363277
9521,0.68811,-0.426636,0.267212,39.001465,17.63916,38.513184
9538,0.69458,-0.415405,0.250854,33.630371,13.427733,30.639647
9554,0.702881,-0.404175,0.249268,30.395506,9.033203,27.587889
9571,0.696777,-0.406372,0.271729,24.475096,-3.417969,22.15576
9588,0.689941,-0.422974,0.285645,18.127441,-16.662598,14.09912
9604,0.685303,-0.466797,0.329834,15.502929,-22.15576,10.0708
9621,0.665283,-0.516235,0.375,8.789063,-27.404783,4.882812
9638,0.653809,-0.542847,0.39978,-1.281738,-28.381346,1.647949
9654,0.638184,-0.579468,0.450195,-6.652832,-29.113768,0.732422
9671,0.638672,-0.592529,0.482788,-15.930175,-30.639647,-1.403808
9688,0.64563,-0.591553,0.490601,-20.629881,-30.395506,-3.723144
9705,0.64978,-0.588135,0.496094,-20.019531,-28.503416,-3.784179
9722,0.646973,-0.585571,0.49231,-12.634276,-21.179197,-2.502441
9738,0.648682,-0.585083,0.489014,-1.342773,-14.831542,-2.197266
9755,0.6521,-0.585815,0.47937,3.479004,-13.244628,-2.990722
9772,0.65564,-0.596191,0.482788,10.253905,-11.840819,-5.737304
9789,0.666016,-0.608887,0.486816,13.97705,-9.58252,-8.178711
9805,0.697998,-0.628174,0.482178,14.648437,-8.972168,-8.361816
9822,0.69812,-0.645386,0.469727,13.244628,-10.925292,-5.859375
9839,0.696655,-0.649292,0.463745,6.835937,-16.296387,-2.929687
9856,0.703491,-0.653198,0.454346,2.441406,-19.104004,-2.01416
9873,0.720337,-0.64856,0.447632,-6.103515,-25.817869,-1.831055
9889,0.727173,-0.651733,0.454834,-11.169433,-34.545898,-2.746582
9906,0.728638,-0.682739,0.496338,-13.85498,-38.635254,-2.258301
9922,0.709839,-0.702759,0.536987,-24.414061,-44.006344,5.676269
9939,0.613037,-0.717896,0.685425,-35.03418,-39.245605,21.545408
9956,0.464478,-0.744263,1.051392,-30.761717,-24.230955,33.14209
9972,0.377563,-0.749268,1.327148,3.112793,87.341301,64.697266
9989,0.181152,-0.59082,1.617188,25.146482,195.37352,77.941895
10005,0.049438,-0.411133,1.30188,68.359375,442.932098,88.378899
10022,0.073975,-0.361572,1.057983,64.086914,618.408203,69.335937
10039,0.243408,-0.273193,0.554687,44.006344,668.029724,45.227047
10055,0.26001,-0.313599,0.031738,-11.230468,701.293884,-21.850584
10072,0.217041,-0.375122,-0.217773,-42.968746,678.649841,-73.974609
10088,0.060425,-0.468506,-0.575195,-31.494139,655.029236,-80.383293
10105,-0.093262,-0.648804,-0.859741,30.517576,597.106934,-61.096188
10122,-0.167358,-0.738403,-1.022095,53.405758,524.719238,-30.09033
10139,-0.213013,-0.754272,-1.362305,37.597656,477.966278,-18.066406
10155,-0.180542,-0.713013,-1.586426,3.234863,357.543915,2.258301
10172,-0.158447,-0.678101,-1.642578,1.159668,212.219223,12.695312
10189,-0.126465,-0.590698,-1.677734,11.96289,137.451172,10.742187
10206,-0.12146,-0.550537,-1.53418,32.531738,-8.605957,-1.831055
10223,-0.113403,-0.506592,-1.435303,39.733887,-124.755852,-15.197753
10240,-0.010376,-0.488647,-1.37146,38.757324,-174.438461,-21.667479
10257,0.117798,-0.489624,-1.229492,26.06201,-271.728516,-26.367186
10274,0.168335,-0.479004,-1.132568,10.437011,-352.844208,-16.113281
10291,0.224487,-0.455566,-0.896606,1.708984,-381.835907,-7.873535
10307,0.279907,-0.43396,-0.679199,-19.53125,-411.560028,6.896972
10324,0.33606,-0.449951,-0.564941,-30.456541,-408.691376,15.747069
10341,0.476685,-0.425415,-0.35437,-32.714844,-401.123016,18.066406
10357,0.592407,-0.418823,-0.228882,-34.423828,-386.535614,19.042969
10374,0.625732,-0.411865,-0.168823,-38.146973,-377.685516,16.113281
10391,0.603516,-0.393677,-0.024292,-33.630371,-368.713348,10.375976
10408,0.633301,-0.392944,0.095947,-10.925292,-338.623016,-15.624999
10425,0.64856,-0.437134,0.125488,-3.540039,-309.997559,-44.55566
10441,0.634888,-0.551025,0.20752,-5.432128,-298.522949,-52.917477
10458,0.61792,-0.688965,0.282349,-16.113281,-269.165039,-54.565426
10475,0.622681,-0.744629,0.306763,-47.973629,-232.54393,-38.146973
10492,0.622559,-0.788208,0.372681,-83.557121,-194.885239,-13.366698
10509,0.631348,-0.736694,0.445679,-101.379387,-176.757797,-1.464844
10526,0.641724,-0.740845,0.475952,-102.539055,-142.822266,19.775391
10542,0.645996,-0.659546,0.498169,-88.98925,-128.662109,27.526854
10559,0.667847,-0.572754,0.54126,-65.490723,-105.957024,35.766602
10576,0.686035,-0.535889,0.561035,-44.189449,-85.144035,36.010742
10592,0.708984,-0.490479,0.577148,-32.348633,-76.538086,33.630371
10609,0.721436,-0.514526,0.609253,-5.554199,-64.331055,27.587889
10625,0.721802,-0.543945,0.620728,14.526366,-51.635738,25.634764
10642,0.716309,-0.622559,0.669556,19.226074,-42.724606,28.015135
10658,0.691772,-0.65271,0.671387,19.104004,-15.930175,39.916992
10675,0.683838,-0.648071,0.661499,15.686034,8.544922,46.630856
10692,0.701904,-0.621338,0.6427,13.610839,17.089844,46.386715
10708,0.735107,-0.587891,0.620972,8.911133,28.625486,45.288082
10725,0.745117,-0.578369,0.609619,7.263183,38.146973,47.973629
10742,0.755371,-0.563599,0.574341,8.850098,43.090816,51.330563
10758,0.762329,-0.539795,0.522461,14.343261,51.452633,60.302731
10775,0.7677,-0.518921,0.497803,22.094725,55.603024,68.42041
10791,0.783447,-0.486694,0.456787,26.855467,55.419918,70.678711
10808,0.801514,-0.480835,0.437256,36.804199,51.452633,72.265625
10825,0.804687,-0.474854,0.42395,38.635254,46.508785,75.012207
10842,0.811768,-0.457764,0.394653,35.15625,43.334957,76.23291
10859,0.819336,-0.434692,0.382324,28.320311,36.743164,77.331543
10875,0.828369,-0.385742,0.353516,23.681639,30.456541,75.805664
10892,0.838501,-0.337891,0.330078,23.254393,27.770994,75.012207
10909,0.841797,-0.31543,0.325562,26.000975,23.376463,76.660156
10925,0.842041,-0.282593,0.319824,29.174803,18.859863,78.491211
10942,0.862549,-0.2323,0.300659,29.96826,16.052246,77.697754
10959,0.870483,-0.209351,0.292969,31.433104,8.483887,74.09668
10975,0.881592,-0.166504,0.28479,33.752441,4.02832,71.716309
10992,0.889526,-0.122437,0.279297,37.414551,-6.225585,66.101074
11008,0.893921,-0.099976,0.2771,41.564938,-18.493652,58.776852
11025,0.903442,-0.0625,0.275879,44.189449,-24.963377,54.809566
11042,0.897949,-0.05896,0.292236,48.645016,-36.376953,47.302242
11059,0.894897,-0.065918,0.310181,49.133297,-41.809078,42.66357
11075,0.893677,-0.05835,0.323486,44.982906,-42.175289,40.710445
11092,0.883301,-0.040527,0.344604,34.179687,-43.823238,35.766602
11109,0.880615,-0.03894,0.362793,34.851074,-44.738766,30.456541
11125,0.882202,-0.055786,0.393677,34.057617,-44.067379,27.770994
11142,0.883057,-0.062134,0.419434,27.893064,-41.748043,22.827147
11159,0.882324,-0.059814,0.43103,18.371582,-38.269043,16.601562
11175,0.88501,-0.066284,0.452881,14.282226,-36.010742,12.756347
11192,0.886719,-0.081543,0.465576,7.629394,-31.311033,4.394531
11209,0.886353,-0.095337,0.470703,0.976562,-28.259275,-3.540039
11225,0.890381,-0.123535,0.481323,-2.563476,-27.221678,-6.469726
11242,0.887451,-0.143311,0.495728,-9.460449,-25.146482,-9.277344
11259,0.883667,-0.148804,0.498169,-16.235352,-22.583006,-10.253905
11275,0.880615,-0.157837,0.502075,-18.615723,-21.484373,-11.047362
11292,0.885742,-0.16333,0.502197,-20.446775,-19.287109,-12.08496
11308,0.887695,-0.163696,0.497803,-18.310547,-17.272949,-9.338379
11325,0.886597,-0.143433,0.48291,-14.953612,-18.432617,-6.225585
11341,0.890625,-0.119385,0.481445,-0.061035,-30.883787,0.12207
11358,0.906982,-0.092896,0.507568,31.372068,-51.940914,3.784179
11374,0.900024,-0.148926,0.54187,47.729488,-62.622066,4.211426
11391,0.892822,-0.204468,0.58728,61.706539,-79.223633,6.347656
11408,0.852905,-0.360962,0.74231,54.931637,-80.505363,11.413573
11424,0.760498,-0.562134,0.987549,19.348145,-55.664059,37.04834
11441,0.691162,-0.601929,1.11145,-45.288082,30.761717,76.477051
11458,0.558472,-0.55249,1.410645,-85.571281,105.590813,89.843742
11475,0.37793,-0.485352,1.366577,-183.77684,322.387665,98.083488
11491,0.255615,-0.427368,1.151733,-324.768036,536.682129,115.722649
11508,0.166748,-0.059204,0.547607,-386.657684,605.712891,125.854485
11525,0.344116,0.517334,0.187012,-380.981415,650.268494,116.08886
11541,0.38269,0.648193,0.093506,-180.480942,648.132263,47.485348
11558,0.247681,0.523926,-0.160767,-64.758301,649.536072,-7.507324
11575,-0.027954,0.301025,-0.493408,75.073242,658.080994,-127.868645
11592,-0.177124,0.074097,-0.694824,87.646477,659.179626,-195.983871
11608,-0.275513,-0.478638,-1.153564,48.156734,647.094666,-188.293442
11625,-0.369873,-0.570312,-1.46582,-82.641594,576.538086,-120.666496
11642,-0.40271,-0.556885,-1.72522,-129.943848,438.171356,-45.410152
11659,-0.273682,-0.676147,-2.234497,-111.572258,342.834442,-4.394531
11676,-0.225464,-0.570679,-2.266479,-65.429687,122.00927,92.468254
11693,-0.289307,-0.411865,-2.123535,-25.634764,-81.603996,161.926254
11710,-0.332031,-0.170654,-1.877563,-3.967285,-162.963852,169.433578
11727,-0.249146,-0.01062,-1.640503,33.691406,-297.607422,138.366699
11744,-0.172241,0.04541,-1.528076,53.710934,-393.249481,88.74511
11761,0.036133,0.127075,-1.238037,66.223145,-455.566376,45.593258
11777,0.24646,0.221436,-0.911987,72.44873,-477.539032,26.245115
11794,0.33313,0.259277,-0.767944,97.167961,-497.802704,-0.854492
11810,0.418579,0.257446,-0.531738,116.516106,-495.483368,-7.385253
11828,0.511719,0.215698,-0.318115,142.150879,-488.098114,-12.329101
11844,0.533081,0.227295,-0.192139,158.813477,-469.482391,-13.732909
11861,0.596436,0.227417,0.004272,173.82811,-443.969696,-22.766111
11878,0.716431,0.069458,0.069946,213.867172,-381.713837,-52.36816
11894,0.762817,-0.00415,0.136475,183.5327,-330.13913,-64.575195
11911,0.761108,-0.139038,0.295532,149.414062,-311.035156,-63.110348
11928,0.773193,-0.174438,0.427734,81.542961,-282.165527,-58.1665
11945,0.785522,-0.178467,0.4823,27.282713,-246.520981,-58.1665
11961,0.798706,-0.182373,0.561035,2.258301,-224.792465,-58.04443
11978,0.801392,-0.184814,0.629028,-36.071777,-177.062973,-49.926754
11995,0.80542,-0.143555,0.648437,-50.292965,-125.061028,-36.010742
12012,0.82605,-0.058472,0.664673,-49.072262,-100.097649,-32.043457
12029,0.843872,-0.026489,0.643188,-31.066893,-57.983395,-29.907225
12046,0.850952,-0.01709,0.623779,-6.16455,-29.907225,-29.174803
12063,0.864868,-0.02417,0.596558,15.624999,-13.427733,-25.146482
12080,0.867798,-0.07019,0.60376,25.573729,-7.141113,-20.996092
12097,0.862793,-0.084595,0.609985,39.367676,5.249023,-7.93457
12114,0.843262,-0.072266,0.600708,43.273922,16.235352,2.075195
12130,0.839355,-0.056274,0.589722,45.288082,21.301268,4.455566
12147,0.841187,-0.047974,0.582642,48.583981,32.104492,6.713867
12163,0.844849,-0.034668,0.578979,49.194332,37.780762,6.591796
12180,0.840698,-0.040649,0.577271,50.048824,52.856441,6.04248
12197,0.83606,-0.044312,0.570679,48.400875,73.547363,6.652832
12213,0.8302,-0.041016,0.543457,45.959469,84.350578,6.347656
12230,0.827148,-0.050049,0.507324,37.109375,104.37011,2.197266
12246,0.828613,-0.059937,0.489746,26.18408,122.192375,-4.02832
12263,0.830811,-0.078979,0.449097,20.080564,130.432129,-7.141113
12280,0.840942,-0.089722,0.393311,4.638672,145.629883,-12.878417
12297,0.84375,-0.093506,0.359497,-15.624999,158.14209,-18.920898
12314,0.849854,-0.105103,0.279175,-24.16992,163.024887,-22.827147
12331,0.859375,-0.123657,0.198242,-35.461426,169.799789,-31.555174
12348,0.869629,-0.138306,0.156128,-41.809078,170.654282,-37.353516
12364,0.88855,-0.172119,0.064575,-44.799801,169.067368,-39.18457
12381,0.901001,-0.223755,-0.043091,-53.527828,161.376938,-41.381832
12398,0.90918,-0.245239,-0.084961,-61.706539,143.981934,-39.18457
12415,0.914185,-0.262329,-0.138672,-60.424801,122.375481,-32.958984
12432,0.896484,-0.274292,-0.163574,-57.678219,112.42675,-30.2124
12449,0.884155,-0.28418,-0.168945,-44.738766,98.632805,-28.259275
12466,0.858887,-0.295532,-0.205688,-33.630371,95.886223,-27.038572
12483,0.842163,-0.313721,-0.257324,-33.14209,97.045891,-25.878904
12500,0.840698,-0.325317,-0.29541,-33.569336,99.731438,-22.888182
12517,0.843018,-0.327026,-0.308838,-28.991697,99.914543,-19.958496
12533,0.847412,-0.32959,-0.334595,-25.512693,98.57177,-19.042969
12551,0.841309,-0.326782,-0.355225,-17.883301,94.055168,-19.042969
12567,0.835327,-0.329834,-0.373901,-11.474608,89.538567,-19.165039
12584,0.82251,-0.325195,-0.405151,-9.765625,87.829582,-18.737793
12600,0.812378,-0.310913,-0.442871,-5.371093,89.172356,-19.836426
12617,0.809448,-0.309326,-0.468262,-1.281738,95.031731,-21.484373
12634,0.815308,-0.317993,-0.525269,-0.976562,96.80175,-20.629881
12651,0.816162,-0.267212,-0.544312,0.793457,97.290031,-17.700195
12668,0.80896,-0.222168,-0.553711,12.08496,102.60009,-23.986814
12684,0.767944,-0.169189,-0.590088,19.287109,108.5205,-30.822752
12701,0.72522,-0.21167,-0.651489,45.410152,122.192375,-44.738766
12718,0.726929,-0.273315,-0.700806,55.175777,123.474113,-45.104977
12735,0.761108,-0.434082,-0.76123,44.189449,113.586418,-37.109375
12751,0.76355,-0.489868,-0.781738,10.986327,80.505363,-14.22119
12768,0.733521,-0.500977,-0.803711,-8.056641,51.208492,-2.197266
12784,0.713135,-0.417603,-0.822754,-8.850098,43.334957,-2.685547
12801,0.710449,-0.402954,-0.841064,-12.268065,36.499023,-6.469726
12818,0.700439,-0.414551,-0.868896,-23.742674,29.846189,-1.403808
12835,0.688477,-0.411987,-0.868774,-27.832029,25.817869,2.807617
12852,0.689941,-0.399902,-0.865845,-31.127928,15.86914,10.253905
12868,0.684082,-0.345337,-0.847534,-26.672361,5.126953,12.634276
12885,0.682983,-0.311401,-0.823486,-21.911619,0.366211,11.596679
12902,0.680786,-0.301025,-0.808228,-13.610839,-8.483887,8.178711
12919,0.66748,-0.290771,-0.772095,-8.422852,-14.22119,3.234863
12935,0.662598,-0.293335,-0.744873,-7.141113,-15.808105,0.976562
12952,0.662476,-0.297607,-0.733765,-7.568359,-17.150879,-2.319336
12969,0.661377,-0.303589,-0.71582,-8.056641,-17.211914,-4.150391
12985,0.666626,-0.314209,-0.704224,-8.789063,-17.333984,-7.873535
13002,0.671387,-0.320435,-0.699097,-8.850098,-18.859863,-10.559081
13019,0.679077,-0.33606,-0.685791,-8.056641,-20.507811,-13.000487
13036,0.685669,-0.364014,-0.677368,-7.629394,-21.545408,-14.038085
13052,0.687622,-0.374146,-0.673706,-8.361816,-24.841307,-13.610839
13069,0.691895,-0.389648,-0.664307,-8.300781,-26.428221,-12.817382
13085,0.691162,-0.397095,-0.655884,-6.347656,-27.9541,-11.718749
13102,0.69043,-0.401733,-0.650391,-2.319336,-26.916502,-11.169433
13119,0.695068,-0.423462,-0.630371,0.12207,-25.878904,-10.131835
13136,0.706787,-0.443848,-0.612427,5.493164,-23.559568,-5.92041
13152,0.712036,-0.450684,-0.609131,7.8125,-22.888182,2.624511
13169,0.713745,-0.428955,-0.601807,9.82666,-23.437498,7.324218
13186,0.717773,-0.388306,-0.598145,19.714355,-22.949217,12.145995
13202,0.723267,-0.371948,-0.594849,32.653809,-19.592285,11.169433
13219,0.733276,-0.345093,-0.591675,38.879395,-17.63916,9.399414
13235,0.734619,-0.34729,-0.588135,45.959469,-14.709472,6.469726
13252,0.73938,-0.356445,-0.586914,42.297359,-14.160155,6.103515
13268,0.753418,-0.376587,-0.579224,36.010742,-15.441894,6.774902
13285,0.760986,-0.365479,-0.571289,19.40918,-20.019531,7.995605
13302,0.765381,-0.349731,-0.571777,2.868652,-23.681639,7.385253
13318,0.776001,-0.330078,-0.570312,-5.493164,-25.268553,6.713867
13335,0.787476,-0.319824,-0.567871,-16.906738,-30.456541,4.455566
13351,0.811279,-0.30835,-0.564209,-25.146482,-44.738766,0.427246
13368,0.823364,-0.329346,-0.520996,-29.052732,-55.541988,-2.13623
13385,0.823608,-0.331421,-0.46875,-34.118652,-74.523926,-11.596679
13402,0.809448,-0.327271,-0.313843,-42.66357,-86.547844,-30.09033
13419,0.745972,-0.415161,-0.088379,-44.982906,-89.782707,-42.175289
13435,0.718506,-0.580078,0.026001,-35.339355,-62.377926,-46.752926
13452,0.564941,-0.947388,0.937744,118.591301,182.678207,29.907225
13469,-0.086304,-0.675537,0.657471,94.970695,387.573212,85.449211
13485,-0.467651,-0.461426,0.279175,-120.056145,695.617615,140.380859
13502,-0.410278,-0.038696,-0.306763,-138.305664,768.188416,120.849602
13519,-0.187378,0.262939,-0.642944,-34.179687,798.217712,36.071777
13535,-0.273804,0.262573,-0.768677,88.134758,756.896912,-26.611326
13552,-0.67334,-0.217285,-1.056519,132.324219,718.627869,-27.404783
13569,-1.097168,-0.57251,-1.473511,80.93261,621.704102,-1.281738
13585,-1.205566,-0.564209,-1.720825,-28.747557,487.365692,25.451658
13602,-1.22644,-0.383789,-2.044189,-64.575195,396.179169,38.024902
13618,-1.19397,-0.247559,-2.003174,-75.561523,190.185532,52.612301
13635,-1.186157,-0.207642,-1.858521,-40.954586,0.854492,40.344234
13651,-1.097656,-0.143066,-1.47876,-25.878904,-75.073242,26.794432
13668,-0.836426,-0.161865,-1.173706,-19.592285,-184.814438,-2.075195
13685,-0.680176,-0.180298,-1.078491,-30.029295,-249.877914,-22.15576
13702,-0.394043,-0.231079,-0.98999,-33.02002,-272.949219,-27.099607
13718,-0.181641,-0.233643,-0.913574,-22.27783,-309.020996,-27.465818
13735,-0.111694,-0.259888,-0.92334,-14.953612,-343.444794,-16.357422
13752,-0.065674,-0.359009,-1.014771,-26.733397,-369.079559,-6.713867
13769,-0.149658,-0.346802,-1.058472,-65.063477,-430.297821,10.620116
13786,-0.191895,-0.336426,-1.023682,-61.096188,-473.449677,10.31494
13803,-0.22229,-0.348877,-0.890381,-39.733887,-479.064911,2.01416
13820,-0.042236,-0.432617,-0.853271,6.774902,-464.477509,-14.038085
13837,0.025879,-0.376709,-0.766479,45.227047,-424.560516,-17.883301
13854,0.148315,-0.238159,-0.598267,72.021484,-382.568329,-27.832029
13870,0.384277,-0.456909,-0.56543,101.745598,-278.320312,-57.922359
13887,0.471313,-0.537109,-0.522339,53.100582,-198.608383,-60.241695
13904,0.534546,-0.565918,-0.368652,26.06201,-171.142563,-49.194332
13921,0.562744,-0.493652,-0.265625,-18.554687,-124.633781,-25.451658
13937,0.58728,-0.455688,-0.250854,-46.997066,-80.200195,-16.052246
13954,0.647583,-0.39624,-0.274048,-57.434078,-59.509274,-15.014647
13971,0.685669,-0.351196,-0.347412,-64.575195,-24.353025,-13.549804
13988,0.694214,-0.325195,-0.377075,-56.091305,2.563476,-13.97705
14005,0.69751,-0.289673,-0.396606,-34.729004,13.732909,-17.028809
14022,0.705688,-0.318481,-0.408569,7.141113,23.925779,-23.742674
14039,0.704834,-0.310181,-0.402344,23.620604,22.094725,-25.146482
14056,0.690186,-0.237183,-0.404663,39.794922,25.268553,-30.639647
14073,0.66272,-0.146484,-0.444824,50.23193,31.066893,-35.522461
14089,0.657104,-0.150635,-0.496948,64.453125,43.518063,-41.137691
14106,0.648315,-0.205688,-0.56543,63.659664,43.212887,-36.254883
14123,0.601318,-0.138916,-0.56897,63.049313,32.958984,-20.507811
14140,0.571655,-0.070557,-0.567505,85.021965,25.390623,-26.611326
14157,0.51123,-0.010376,-0.572266,109.985344,26.672361,-64.880371
14174,0.467041,-0.167114,-0.594971,119.567863,29.541014,-90.209953
14190,0.462769,-0.296875,-0.595337,108.093254,32.897949,-124.450676
14207,0.442383,-0.526489,-0.528687,53.771969,41.442867,-121.459953
14224,0.393799,-0.612915,-0.51062,23.681639,52.856441,-113.891594
14241,0.36853,-0.629883,-0.538696,-25.878904,83.251945,-100.769035
14258,0.337891,-0.681641,-0.677246,-53.161617,100.769035,-89.721672
14275,0.346558,-0.699097,-0.763672,-60.363766,98.876945,-81.665031
14291,0.345703,-0.69043,-0.782715,-56.457516,82.94677,-65.368652
14308,0.331055,-0.683472,-0.776123,-37.719727,68.115234,-54.26025
14325,0.296875,-0.641968,-0.792603,-28.07617,65.063477,-52.978512
14342,0.273804,-0.622192,-0.817871,-9.338379,65.185547,-60.607906
14358,0.251587,-0.597046,-0.876099,8.911133,62.499996,-68.786621
14375,0.211548,-0.744263,-0.918091,10.803222,57.373043,-68.17627
14392,0.194458,-0.842163,-0.896484,-5.798339,48.156734,-55.969234
14409,0.175537,-0.838013,-0.86499,-30.578611,51.940914,-46.081539
14426,0.16394,-0.730469,-0.912109,-36.010742,56.27441,-46.936031
14442,0.169312,-0.725464,-0.958008,-31.311033,51.940914,-49.865719
14459,0.158936,-0.759888,-0.969116,-20.38574,28.320311,-41.015621
14476,0.126709,-0.819336,-0.897217,-15.747069,19.897461,-35.27832
14493,0.126465,-0.787842,-0.861206,-12.390136,18.066406,-26.672361
14509,0.134888,-0.761841,-0.860107,-17.028809,23.498533,-21.484373
14526,0.14502,-0.71521,-0.869019,-17.456055,23.986814,-19.65332
14544,0.15625,-0.712036,-0.859253,-13.488769,18.310547,-16.723633
14561,0.165405,-0.724854,-0.850098,-8.666992,10.375976,-12.023925
14577,0.171753,-0.714478,-0.825928,-6.774902,8.178711,-9.094238
14594,0.162842,-0.654175,-0.81604,-3.479004,8.361816,-5.859375
14610,0.155029,-0.638306,-0.81897,-2.380371,10.742187,-7.507324
14627,0.137695,-0.644165,-0.802856,-3.601074,11.596679,-8.972168
14643,0.13208,-0.651245,-0.787964,-7.324218,11.230468,-11.840819
14660,0.131714,-0.68811,-0.77417,-10.131835,9.643555,-11.840819
14676,0.113037,-0.680542,-0.768433,-14.953612,3.90625,-7.629394
14693,0.09729,-0.665161,-0.762695,-11.779784,-0.427246,-5.615234
14709,0.074707,-0.683716,-0.744385,-9.70459,-0.427246,-6.04248
14726,0.082031,-0.714844,-0.716675,-10.19287,2.807617,-5.493164
14742,0.09375,-0.716553,-0.713989,-15.624999,6.835937,-0.976562
14759,0.122192,-0.717651,-0.739014,-19.165039,8.117676,2.502441
14775,0.129639,-0.672363,-0.748901,-23.071287,6.347656,9.460449
14792,0.132446,-0.639771,-0.752075,-14.465331,2.13623,10.375976
14808,0.155029,-0.600098,-0.772949,-6.896972,0.671387,8.850098
14825,0.16394,-0.600586,-0.780029,8.300781,-0.793457,5.554199
14841,0.15979,-0.616089,-0.76709,13.85498,0.854492,3.479004
14858,0.138062,-0.660889,-0.757202,9.82666,2.929687,2.685547
14875,0.127075,-0.677979,-0.751709,-4.089355,4.211426,2.990722
14891,0.118042,-0.681763,-0.752075,-9.765625,2.502441,3.967285
14908,0.112305,-0.661011,-0.762817,-16.540527,-4.394531,7.324218
14925,0.105347,-0.649658,-0.758301,-13.732909,-11.718749,7.873535
14941,0.092407,-0.640991,-0.738892,-9.399414,-14.160155,6.103515
14958,0.090088,-0.648437,-0.732666,-1.89209,-15.624999,1.647949
14975,0.08606,-0.660767,-0.729004,-3.112793,-15.86914,0.427246
14991,0.080078,-0.687988,-0.730835,-6.774902,-16.052246,0.976562
15008,0.095825,-0.671387,-0.748169,-14.160155,-16.235352,1.586914
15025,0.109375,-0.660034,-0.756104,-15.075683,-17.76123,-0.671387
15042,0.123657,-0.629395,-0.760254,-11.596679,-19.53125,-2.563476
15058,0.140625,-0.581543,-0.767944,3.601074,-22.033689,-8.239746
15075,0.160645,-0.574951,-0.764893,23.254393,-22.033689,-15.197753
15092,0.199097,-0.580078,-0.738892,34.240723,-21.972654,-18.432617
15109,0.214111,-0.592285,-0.71936,51.574703,-17.822266,-25.024412
15126,0.213135,-0.62854,-0.726196,45.593258,-8.483887,-28.747557
15142,0.195557,-0.738403,-0.726074,30.883787,-5.371093,-26.733397
15159,0.177734,-0.782104,-0.679443,-6.286621,-4.943848,-16.967773
15176,0.16748,-0.758911,-0.663574,-28.381346,-6.713867,-14.038085
15193,0.138184,-0.717163,-0.628174,-33.508301,-8.789063,-17.51709
15210,0.083618,-0.746704,-0.505615,-30.944822,-15.86914,-28.808592
15227,0.032593,-0.802368,-0.392822,6.774902,6.591796,-24.16992
15244,-0.147339,-1.02002,0.065552,47.607418,51.452633,-3.90625
15260,-0.624634,-0.859619,0.321167,259.460449,269.53125,72.570801
15277,-0.785034,-0.669189,0.182251,355.773895,529.907227,153.869629
15294,-0.822144,-0.662964,0.106689,300.354004,607.849121,168.15184
15311,-0.886841,-0.293701,0.029785,174.804672,704.711853,136.291504
15328,-0.894653,-0.321655,-0.269653,111.022942,747.924744,125.061028
15345,-0.928589,-0.286377,-0.949341,20.935057,665.283142,95.642082
15361,-0.973633,-0.072632,-1.420898,-24.963377,581.665039,56.884762
15378,-1.013306,-0.082031,-1.549194,-34.423828,372.924774,9.094238
15395,-1.271362,-0.19751,-1.532227,4.150391,157.409668,53.955074
15412,-1.619507,-0.191772,-1.092529,10.31494,72.937012,80.93261
15429,-1.593994,-0.356934,-0.694458,-7.141113,-21.911619,105.651848
15446,-1.432739,-0.398193,-0.584229,-48.767086,-58.593746,97.839348
15463,-1.003296,-0.426025,-0.514282,-61.218258,-72.143555,81.909172
15480,-0.695679,-0.49939,-0.427612,-51.086422,-103.393547,32.653809
15497,-0.613525,-0.551636,-0.402832,-29.418943,-130.126953,-13.427733
15514,-0.607544,-0.555786,-0.352051,-27.282713,-138.73291,-29.541014
15531,-0.661865,-0.530029,-0.373535,-25.634764,-130.126953,-49.255367
15548,-0.652954,-0.539673,-0.499023,-47.058102,-114.501945,-56.762691
15565,-0.639893,-0.526367,-0.876587,-71.716309,-126.342766,-57.006832
15582,-0.6875,-0.499268,-1.073486,-122.192375,-204.040512,-51.513668
15599,-0.746094,-0.478149,-1.077148,-122.192375,-303.894043,-38.146973
15617,-0.797485,-0.489014,-1.080078,-102.905266,-392.028778,-21.972654
15634,-0.827515,-0.503052,-0.914429,-102.416985,-432.067841,-14.953612
15651,-0.887329,-0.560181,-0.707764,-100.952141,-478.088348,-9.155273
15668,-0.833496,-0.602905,-0.682495,-108.27636,-468.505829,-9.277344
15685,-0.636841,-0.667725,-0.549438,-126.03759,-452.026337,-8.911133
15702,-0.423706,-0.589111,-0.419189,-130.432129,-389.465302,-12.878417
15719,-0.323242,-0.591309,-0.391846,-146.362305,-313.110352,-25.451658
15735,-0.169312,-0.746582,-0.283691,-177.490219,-281.12793,-28.137205
15752,-0.062622,-0.752197,-0.234009,-166.381821,-219.848618,-20.935057
15769,-0.035889,-0.679565,-0.206421,-110.900871,-155.090332,-22.888182
15786,0.006348,-0.697754,-0.205078,-93.261711,-119.812004,-28.625486
15803,0.021973,-0.811157,-0.220947,-66.162109,-52.612301,-32.653809
15820,0.022827,-0.837524,-0.224854,-44.55566,4.150391,-25.939939
15836,0.02063,-0.960449,-0.271729,-39.733887,27.160643,-22.094725
15853,0.016724,-1.03833,-0.302002,-51.391598,52.734371,-8.239746
15869,0.008667,-0.997192,-0.310547,-57.434078,62.622066,2.624511
15885,0.009521,-0.956543,-0.360962,-51.330563,65.185547,2.807617
15902,0.016235,-0.963379,-0.390991,-27.9541,66.650391,1.89209
15918,0.011108,-0.985718,-0.44751,-0.854492,68.29834,4.577637
15935,0.000122,-1.057983,-0.498779,9.58252,68.786621,7.995605
15951,-0.003052,-1.104126,-0.500732,16.235352,64.39209,23.864744
15968,-0.009155,-1.092896,-0.466187,16.784668,60.546871,34.606934
15984,-0.002197,-0.99353,-0.472534,23.132322,53.894039,47.851559
16000,0.005005,-0.9729,-0.47583,29.907225,45.288082,49.316402
16017,0.004761,-0.932983,-0.45752,33.752441,40.222164,49.072262
16034,0.006958,-0.934448,-0.426636,42.41943,35.27832,47.851559
16050,0.012939,-0.937012,-0.404907,41.198727,33.508301,52.734371
16067,0.012939,-0.896973,-0.348389,41.809078,36.254883,57.373043
16083,0.026245,-0.885742,-0.336426,40.222164,52.673336,67.260742
16100,0.052246,-0.867065,-0.357666,25.146482,66.894531,74.523926
16116,0.076538,-0.831055,-0.415894,18.127441,69.091797,74.890137
16133,0.083862,-0.831177,-0.437988,3.051758,64.575195,71.533203
16150,0.088013,-0.804565,-0.457764,-3.295898,61.279293,68.725586
16166,0.093262,-0.763672,-0.468018,-5.187988,58.776852,60.913082
16183,0.096436,-0.76001,-0.470093,2.01416,60.05859,53.649899
16200,0.087402,-0.771484,-0.478882,7.93457,62.316891,49.377438
16217,0.070435,-0.789551,-0.49646,7.629394,63.84277,48.278805
16234,0.0625,-0.814575,-0.501465,-1.220703,66.162109,47.729488
16250,0.067993,-0.818481,-0.521729,-7.141113,66.162109,48.034664
16266,0.075317,-0.783936,-0.5625,-16.174316,65.795898,47.973629
16283,0.077148,-0.779663,-0.579468,-15.075683,64.697266,44.677731
16300,0.086914,-0.770142,-0.600098,-11.596679,63.293453,43.151852
16316,0.094482,-0.77417,-0.624146,-4.02832,59.570309,42.053219
16333,0.097778,-0.771118,-0.635498,2.197266,54.077145,42.175289
16350,0.085571,-0.755493,-0.657471,4.882812,51.513668,41.381832
16367,0.072266,-0.752319,-0.679687,13.000487,49.804684,36.132812
16383,0.069214,-0.777344,-0.681519,14.282226,52.612301,32.592773
16400,0.065308,-0.824829,-0.685669,9.94873,53.710934,34.118652
16417,0.06665,-0.813843,-0.69751,-3.90625,52.24609,42.5415
16434,0.062256,-0.799194,-0.702515,-13.610839,49.194332,48.767086
16450,0.053955,-0.764771,-0.728394,-15.99121,48.034664,49.072262
16467,0.063721,-0.720337,-0.748535,-17.822266,44.921871,47.241207
16484,0.069214,-0.702759,-0.752563,-12.451171,38.818359,43.884274
16501,0.076172,-0.680298,-0.756836,-6.958007,34.545898,41.015621
16518,0.082764,-0.703125,-0.743408,5.004883,22.949217,33.752441
16534,0.090698,-0.714722,-0.73999,12.268065,11.96289,30.151365
16551,0.108521,-0.718384,-0.73291,13.366698,7.629394,30.273436
16568,0.119385,-0.721802,-0.705078,12.756347,0.061035,31.494139
16584,0.12146,-0.71582,-0.69519,7.080078,-4.211426,31.677244
16601,0.134766,-0.696777,-0.677979,4.089355,-5.126953,30.395506
16617,0.172729,-0.682861,-0.662109,2.807617,-6.774902,25.268553
16634,0.188843,-0.677612,-0.657593,5.798339,-11.108397,20.38574
16651,0.201904,-0.692505,-0.661743,7.080078,-13.85498,19.40918
16667,0.200684,-0.706543,-0.655884,10.0708,-19.40918,18.737793
16684,0.202026,-0.71521,-0.638794,12.390136,-21.911619,15.808105
16701,0.207886,-0.705078,-0.635864,13.671874,-21.362303,13.671874
16718,0.205444,-0.724976,-0.639771,12.634276,-16.967773,9.460449
16735,0.202881,-0.764771,-0.63208,6.835937,-12.268065,6.347656
16751,0.212524,-0.746704,-0.610107,5.004883,-10.925292,5.065917
16768,0.2146,-0.738037,-0.607056,7.8125,-8.728027,0.610352
16785,0.219971,-0.746582,-0.607544,13.549804,-7.751464,-4.150391
16802,0.22583,-0.758667,-0.59729,15.319823,-8.178711,-4.699707
16819,0.218018,-0.765869,-0.572754,15.99121,-8.728027,-3.356933
16835,0.216064,-0.763428,-0.565796,12.329101,-6.774902,-0.976562
16852,0.227295,-0.761719,-0.569092,8.361816,-4.882812,0.854492
16869,0.233521,-0.756714,-0.571655,-0.427246,-0.183105,5.249023
16885,0.243652,-0.739136,-0.56958,-7.690429,3.295898,7.385253
16902,0.255493,-0.719604,-0.58374,-9.70459,3.784179,7.263183
16919,0.260132,-0.717896,-0.591064,-11.657714,1.831055,7.629394
16935,0.269531,-0.713989,-0.605469,-5.798339,-0.671387,7.446289
16952,0.272339,-0.701294,-0.610962,-0.244141,-1.647949,6.103515
16969,0.269531,-0.710937,-0.603271,10.986327,-3.723144,1.647949
16985,0.276611,-0.782349,-0.589966,10.131835,-9.94873,3.051758
17002,0.289795,-0.881836,-0.567749,2.563476,-15.502929,9.70459
17018,0.29126,-0.912231,-0.568359,-17.76123,-27.648924,28.930662
17035,0.296387,-0.887939,-0.554077,-25.573729,-33.02002,37.719727
17052,0.314209,-0.784302,-0.496704,-25.085447,-38.085937,45.349117
17068,0.323364,-0.731812,-0.449097,-7.690429,-35.888672,41.992184
17085,0.320923,-0.684814,-0.312134,6.652832,-30.029295,40.283199
17102,0.201538,-0.755249,0.137451,65.979004,16.723633,54.687496
17118,0.00769,-0.847656,0.46521,291.07666,200.683578,121.887199
17135,-0.550781,-0.7771,0.501343,385.375946,335.815399,170.532211
17151,-0.733398,-0.820679,0.195923,218.872055,567.260742,223.449692
17168,-0.686646,-0.565063,0.098022,-95.092766,698.608337,177.795395
17185,-0.591675,-0.166382,-0.202637,-125.366203,733.154236,141.540527
17202,-0.615967,-0.237793,-0.688965,-73.120117,729.675232,64.697266
17219,-0.706299,-0.313843,-0.941895,-78.430176,652.099548,-20.446775
17236,-0.873535,-0.34375,-1.280884,-107.238762,589.172363,-56.518551
17252,-1.082764,-0.570435,-1.493042,-104.064934,417.053192,-98.510735
17269,-1.229126,-0.654663,-1.491943,-38.879395,211.608871,-66.345215
17286,-1.463867,-0.709351,-1.255127,-17.883301,118.835442,-30.456541
17303,-1.483643,-0.709229,-0.936768,-4.638672,-19.897461,23.437498
17320,-1.394897,-0.713989,-0.779175,-8.300781,-94.78759,27.343748
17337,-1.057129,-0.725464,-0.559082,-9.399414,-111.389153,18.981934
17354,-0.674438,-0.751709,-0.444214,-10.131835,-123.168938,1.342773
17371,-0.537231,-0.758789,-0.385864,-5.126953,-116.149895,-6.530761
17388,-0.413696,-0.770752,-0.346069,-1.586914,-103.210442,-6.713867
17404,-0.415039,-0.768188,-0.604614,-12.451171,-72.998047,0.183105
17421,-0.434204,-0.74646,-0.817261,-55.114742,-88.073723,9.70459
17438,-0.503784,-0.641113,-1.168579,-76.599121,-123.107903,8.056641
17455,-0.672363,-0.566284,-1.280884,-80.871574,-222.900375,-12.939452
17472,-0.746826,-0.561279,-1.276978,-45.837399,-328.24704,-42.785641
17490,-0.843018,-0.580566,-1.178345,-21.667479,-414.611786,-56.884762
17506,-0.925537,-0.647583,-1.010254,-15.563964,-445.129364,-55.358883
17523,-0.890625,-0.671021,-0.78186,-10.498046,-467.346161,-39.489746
17540,-0.78479,-0.681641,-0.717651,-19.958496,-433.410614,-23.498533
17557,-0.517578,-0.705322,-0.65332,-33.14209,-405.822723,-17.578125
17574,-0.276245,-0.696533,-0.490112,-70.007324,-349.365204,-1.89209
17591,-0.205322,-0.644775,-0.385254,-65.917969,-283.569336,10.437011
17608,-0.102173,-0.517578,-0.259766,-49.804684,-240.844711,8.972168
17626,0.014771,-0.57959,-0.233032,-14.709472,-140.319824,0.244141
17643,0.059204,-0.64917,-0.283203,-7.019042,-50.537106,5.432128
17660,0.106934,-0.742676,-0.366333,-29.96826,-13.244628,12.145995
17677,0.138184,-0.677368,-0.345337,-28.625486,-6.225585,10.19287
17694,0.151855,-0.646973,-0.356201,-16.723633,11.596679,-3.173828
17711,0.150879,-0.63623,-0.438843,-10.681151,31.188963,-15.624999
17728,0.137817,-0.673096,-0.562256,-7.568359,38.269043,-20.080564
17745,0.130249,-0.726929,-0.633667,-12.817382,38.635254,-17.272949
17762,0.113037,-0.71228,-0.647583,-16.113281,31.677244,-6.530761
17779,0.078491,-0.644409,-0.676636,-11.291503,31.433104,-5.798339
17796,0.056885,-0.565918,-0.722168,3.845215,38.818359,-17.578125
17813,0.05127,-0.547607,-0.754761,16.967773,50.292965,-37.04834
17829,0.095093,-0.602783,-0.84375,15.624999,51.086422,-41.137691
17846,0.15918,-0.604858,-0.812378,-0.732422,31.799314,-26.977537
17863,0.179443,-0.555786,-0.768066,-6.591796,1.403808,-7.263183
17880,0.162109,-0.458862,-0.68042,-2.380371,-11.596679,-4.333496
17897,0.067139,-0.407959,-0.61853,21.606443,-27.893064,-19.714355
17914,0.020264,-0.437378,-0.569824,40.832516,-29.052732,-55.603024
17930,-0.051514,-0.628418,-0.492065,40.64941,-23.498533,-71.899414
17947,-0.069214,-0.773071,-0.449829,7.141113,-8.666992,-87.951653
17964,-0.063843,-0.787354,-0.439453,-48.095699,-0.976562,-81.787102
17981,-0.064941,-0.713745,-0.442627,-66.711426,-0.854492,-76.416016
17998,-0.098633,-0.653442,-0.457886,-63.232418,-3.112793,-74.035645
18016,-0.116943,-0.668457,-0.461426,-32.714844,-5.004883,-77.026367
18033,-0.150024,-0.747192,-0.452026,-23.315428,-5.798339,-72.44873
18050,-0.161743,-0.75354,-0.430786,-28.19824,-4.333496,-68.29834
18067,-0.176758,-0.662476,-0.474609,-36.743164,4.272461,-66.28418
18084,-0.181885,-0.607788,-0.511353,-20.38574,13.244628,-75.927734
18100,-0.207275,-0.638672,-0.555908,1.159668,15.686034,-81.420891
18117,-0.211914,-0.747192,-0.554565,28.930662,16.784668,-80.749504
18133,-0.212524,-0.864136,-0.518188,12.634276,15.319823,-73.059082
18150,-0.222168,-0.806519,-0.51123,-2.624511,16.540527,-72.570801
18166,-0.228638,-0.753418,-0.526367,-18.676758,21.911619,-79.284668
18183,-0.247192,-0.721802,-0.55835,-6.713867,28.747557,-86.85302
18200,-0.288452,-0.841675,-0.557373,-2.746582,33.935547,-88.195793
18217,-0.304443,-0.880981,-0.559326,-19.897461,45.593258,-85.937492
18234,-0.318359,-0.876587,-0.594238,-35.522461,49.621578,-83.496086
18250,-0.317017,-0.825806,-0.637085,-50.048824,51.391598,-77.270508
18267,-0.311157,-0.814209,-0.659912,-36.010742,42.66357,-72.32666
18284,-0.327148,-0.808594,-0.675903,-22.888182,35.461426,-71.350098
18300,-0.382446,-0.910522,-0.665771,-6.286621,30.395506,-70.43457
18317,-0.409424,-0.944092,-0.669556,-21.545408,38.024902,-66.345215
18333,-0.424561,-0.944336,-0.702148,-33.02002,40.222164,-64.39209
18350,-0.413818,-0.934814,-0.75647,-42.114254,28.564451,-60.668941
18367,-0.417358,-0.932251,-0.766357,-33.14209,0.366211,-54.38232
18383,-0.431396,-0.893188,-0.748047,-24.04785,-12.145995,-51.879879
18400,-0.446655,-0.896118,-0.692749,-10.253905,-27.648924,-50.170895
18417,-0.455078,-0.885376,-0.658325,-10.131835,-33.02002,-47.058102
18434,-0.465088,-0.839722,-0.601929,-17.028809,-31.188963,-43.823238
18451,-0.492432,-0.815796,-0.589355,-34.545898,-18.920898,-36.682129
18468,-0.503052,-0.805176,-0.589966,-47.790524,-3.540039,-33.02002
18485,-0.504395,-0.798462,-0.558472,-51.208492,-1.770019,-27.770994
18502,-0.508423,-0.797852,-0.48938,-49.255367,-7.751464,-23.620604
18519,-0.515137,-0.780396,-0.464111,-38.879395,-19.836426,-15.014647
18537,-0.514404,-0.735718,-0.473511,-20.446775,-20.874022,-7.019042
18553,-0.515381,-0.684082,-0.514282,-11.596679,-16.967773,-3.784179
18570,-0.509888,-0.682007,-0.545044,-1.403808,-6.408691,-1.586914
18587,-0.488037,-0.691528,-0.549194,-4.211426,-1.525879,-4.455566
18604,-0.424805,-0.714233,-0.539185,-9.521484,-3.967285,-4.882812
18621,-0.414551,-0.719849,-0.477051,-18.981934,-16.967773,-3.417969
18638,-0.429443,-0.706787,-0.451172,-16.662598,-24.230955,-4.821777
18655,-0.451416,-0.677734,-0.449219,-13.244628,-21.545408,-5.798339
18672,-0.448486,-0.65625,-0.474976,-3.295898,-10.131835,-6.774902
18689,-0.442993,-0.647095,-0.484741,-1.098633,-2.075195,-9.277344
18706,-0.419556,-0.643799,-0.49231,-0.610352,-2.01416,-11.352538
18723,-0.423828,-0.650024,-0.462402,5.92041,-11.230468,-18.798828
18740,-0.438843,-0.655518,-0.430786,20.1416,-27.465818,-32.897949
18757,-0.469604,-0.697388,-0.357056,27.404783,-35.461426,-40.100098
18774,-0.522583,-0.803589,-0.253052,39.794922,-44.616695,-49.072262
18791,-0.559937,-0.873047,-0.140991,66.833496,-5.554199,-24.963377
18808,-0.748901,-1.100952,0.495972,210.388168,176.696762,68.481445
18825,-1.180054,-1.17627,0.330444,257.141113,306.884766,135.925293
18841,-1.38147,-1.14856,0.320435,123.352043,506.103485,217.895493
18858,-1.623291,-0.750244,0.467285,-85.815422,655.273376,192.382797
18875,-1.486572,-0.377075,0.199829,-144.53125,713.684021,167.236313
18892,-1.296265,-0.349976,-0.168213,-186.401352,729.980408,84.777824
18909,-1.083252,-0.262085,-0.893311,-186.828598,582.763672,-41.748043
18925,-0.892456,-0.285522,-1.418335,-164.367661,458.373993,-95.642082
18942,-0.76416,-0.372559,-1.451782,-55.297848,171.447739,-129.943848
18959,-0.69751,-0.595825,-0.935425,45.349117,-64.331055,-97.167961
18976,-0.863403,-0.769775,-0.135376,64.331055,-131.896973,-77.514648
18993,-0.975952,-0.87793,0.351318,66.28418,-166.076645,-46.142574
19010,-0.994385,-0.931519,0.457642,30.395506,-122.680656,-17.883301
19027,-0.985718,-0.926514,0.471924,-3.234863,-90.942375,-3.540039
19044,-0.954468,-0.737915,0.318481,-52.917477,-34.790039,17.578125
19061,-0.938721,-0.664917,0.194702,-45.532223,-2.868652,17.700195
19078,-0.879883,-0.641602,-0.153442,-34.301758,-3.112793,13.732909
19094,-0.817993,-0.716553,-0.416138,-26.916502,-48.33984,16.113281
19111,-0.801636,-0.757568,-0.467896,-40.954586,-136.84082,35.949707
19128,-0.778198,-0.826904,-0.464355,-51.025387,-187.43895,46.508785
19145,-0.825562,-0.809448,-0.4104,-71.960449,-291.503906,59.204098
19162,-0.897949,-0.794556,-0.348145,-92.346184,-388.671844,62.438961
19179,-1.102905,-0.736206,-0.206421,-98.81591,-425.048798,60.729977
19196,-1.172241,-0.699219,-0.15332,-108.215324,-454.711884,52.36816
19213,-1.131958,-0.687622,-0.109741,-127.319328,-431.8237,47.973629
19230,-1.004883,-0.645752,0.024414,-140.319824,-403.503387,46.752926
19247,-0.820435,-0.623169,0.100464,-132.324219,-326.538055,36.499023
19263,-0.770874,-0.583618,0.11499,-105.895988,-249.633774,15.747069
19280,-0.682129,-0.641357,0.105103,-100.158684,-208.435043,5.737304
19297,-0.612793,-0.75647,0.050659,-87.829582,-125.793449,0.549316
19313,-0.595459,-0.773804,0.037964,-83.19091,-48.46191,6.713867
19330,-0.559326,-0.814453,0.013672,-87.890617,-15.441894,9.887695
19348,-0.502686,-0.821289,0.006348,-98.57177,22.033689,18.676758
19364,-0.479736,-0.787231,0.010742,-90.698235,26.489256,27.526854
19381,-0.472412,-0.713867,-0.006592,-74.462891,25.268553,27.709959
19398,-0.490723,-0.738159,-0.06665,-35.27832,31.738279,18.676758
19415,-0.501587,-0.782349,-0.097534,-6.408691,46.081539,5.615234
19432,-0.520142,-0.855957,-0.121338,6.286621,52.429195,-2.502441
19449,-0.479248,-1.00647,-0.145508,-0.183105,49.255367,0.610352
19466,-0.468994,-1.050293,-0.132324,-21.240232,30.456541,25.329588
19482,-0.5,-1.036011,-0.101318,-24.536131,14.953612,47.851559
19499,-0.524902,-1.02478,-0.094482,-21.606443,11.718749,52.429195
19516,-0.523193,-1.030518,-0.102905,-14.831542,10.253905,54.687496
19533,-0.521851,-1.039307,-0.097168,-5.004883,5.92041,56.15234
19550,-0.519531,-1.084717,-0.05957,0.671387,2.807617,57.434078
19567,-0.533691,-1.186768,-0.016357,7.629394,-3.356933,64.025879
19583,-0.542969,-1.222778,0.001831,9.521484,-1.525879,73.547363
19600,-0.537842,-1.215454,0.000366,9.399414,3.112793,79.162598
19617,-0.516846,-1.199463,-0.018921,13.366698,14.831542,92.590324
19633,-0.481201,-1.225952,-0.052979,19.40918,18.798828,105.285637
19650,-0.460327,-1.254639,-0.041382,21.667479,17.028809,109.374992
19667,-0.438599,-1.251831,-0.03833,23.132322,12.756347,117.004387
19684,-0.360229,-1.213379,-0.057373,19.65332,13.916015,133.483887
19700,-0.353638,-1.171021,-0.027832,23.559568,17.76123,141.479492
19717,-0.359375,-1.156128,0.004761,44.43359,37.902832,149.841309
19734,-0.290527,-1.165161,-0.044922,46.264645,50.048824,154.602051
19750,-0.244751,-1.140259,-0.07251,31.127928,58.349606,166.686996
19767,-0.231445,-1.112305,-0.061523,23.681639,57.250973,168.640121
19784,-0.173462,-1.063843,-0.066406,18.798828,58.837887,168.395981
19800,-0.143311,-1.023315,-0.060425,13.305663,63.171383,172.05809
19817,-0.114136,-0.962891,-0.060425,27.770994,71.899414,176.269516
19833,-0.040039,-0.862793,-0.098389,36.437988,79.162598,179.077133
19850,0.012939,-0.872559,-0.162231,42.724606,89.538567,185.66893
19867,0.036499,-0.838135,-0.186279,29.602049,89.782707,187.194809
19883,0.095825,-0.681641,-0.224976,23.925779,89.355461,184.082016
19900,0.143066,-0.59729,-0.273071,24.29199,88.073723,172.302231
19917,0.178833,-0.550659,-0.305542,32.958984,84.716789,160.888657
19933,0.243896,-0.521484,-0.346436,36.437988,82.641594,158.325195
19950,0.274414,-0.4823,-0.364746,39.001465,77.331543,155.212402
19967,0.293213,-0.425293,-0.383911,36.193848,75.134277,145.751953
19984,0.338989,-0.363647,-0.430542,35.217285,75.012207,138.48877
20000,0.385376,-0.351563,-0.491333,32.348633,73.181152,121.215813
20017,0.403809,-0.362671,-0.511719,24.29199,65.856934,103.637688
20033,0.437134,-0.367676,-0.524048,21.240232,60.791012,94.299309
20050,0.464355,-0.390381,-0.537109,16.845703,47.851559,72.021484
20066,0.478149,-0.384888,-0.549194,8.117676,35.766602,48.645016
20083,0.494141,-0.400146,-0.567993,5.981445,30.944822,38.024902
20100,0.51123,-0.422974,-0.579712,6.774902,20.568846,21.972654
20116,0.541992,-0.488403,-0.567017,11.901855,5.187988,13.000487
20133,0.554443,-0.574097,-0.548218,15.563964,-1.525879,10.19287
20150,0.557495,-0.610596,-0.538818,18.371582,-13.793944,8.056641
20166,0.55896,-0.633789,-0.506104,15.258788,-19.226074,7.446289
20183,0.565918,-0.616333,-0.485352,6.225585,-27.343748,5.676269
20200,0.569458,-0.609863,-0.481079,2.13623,-32.104492,3.662109
20216,0.58728,-0.608398,-0.477173,3.723144,-34.179687,2.01416
20233,0.609863,-0.621948,-0.458618,10.803222,-38.452148,-1.098633
20250,0.611694,-0.636475,-0.443726,18.188477,-40.466305,-2.685547
20266,0.611572,-0.674805,-0.420044,18.615723,-40.100098,-2.807617
20283,0.623535,-0.703857,-0.408813,12.329101,-37.780762,-1.159668
20300,0.630493,-0.71228,-0.403564,1.464844,-37.414551,2.929687
20317,0.643188,-0.722778,-0.386597,-3.540039,-38.757324,4.577637
20333,0.657715,-0.71582,-0.360596,-10.131835,-44.860836,6.103515
20350,0.660889,-0.702393,-0.349731,-11.291503,-51.574703,5.371093
20367,0.6698,-0.667358,-0.311768,-9.399414,-54.504391,3.540039
20383,0.686401,-0.673584,-0.206055,-3.662109,-63.537594,-2.624511
20400,0.686157,-0.706543,-0.124023,-4.638672,-82.763664,-14.526366
20416,0.626831,-0.818115,0.032471,-15.136718,-93.078606,-23.498533
20433,0.59082,-0.772583,0.220825,-60.668941,-88.317863,-41.503902
20449,0.546387,-0.755859,0.370361,-66.894531,12.878417,-36.560059
20466,0.155151,-0.82959,0.724243,-14.404296,121.765129,-26.977537
20482,-0.019043,-0.840454,0.548584,94.848625,387.08493,-15.441894
20499,-0.016357,-0.856323,0.082153,87.219231,480.346649,-8.666992
20515,0.10144,-0.608887,-0.226929,-0.976562,562.683105,3.601074
20531,0.065063,-0.512817,-0.315918,-1.770019,583.374023,-2.502441
20548,-0.136475,-0.417236,-0.542236,28.686522,587.036133,-9.155273
20564,-0.348755,-0.429932,-0.848145,73.913574,579.833984,-30.395506
20581,-0.41748,-0.461426,-0.983765,111.755363,544.616699,-43.334957
20598,-0.49585,-0.492187,-1.188477,129.821777,512.573242,-44.006344
20615,-0.528687,-0.608643,-1.384155,144.714355,420.654266,-36.254883
20632,-0.508423,-0.657471,-1.459351,121.643059,304.260254,-1.403808
20648,-0.519409,-0.650757,-1.4729,103.393547,240.295395,17.63916
20665,-0.596069,-0.551758,-1.401489,67.810059,113.769524,37.780762
20682,-0.630493,-0.494751,-1.348022,38.879395,1.708984,39.672852
20699,-0.649048,-0.393188,-1.171265,29.724119,-42.785641,38.208008
20716,-0.600464,-0.327637,-0.974365,25.695799,-100.46386,32.836914
20733,-0.568726,-0.310791,-0.911865,25.207518,-119.812004,25.329588
20750,-0.495361,-0.31665,-0.954346,20.874022,-122.25341,20.1416
20767,-0.334595,-0.428467,-1.238403,-3.967285,-144.897461,9.155273
20784,-0.233643,-0.494141,-1.384033,-37.475586,-223.388657,2.563476
20800,-0.086304,-0.523804,-1.426147,-47.607418,-279.35791,-2.563476
20817,-0.029663,-0.475098,-1.201904,-39.18457,-393.249481,-22.949217
20834,-0.058472,-0.441895,-1.035156,0.671387,-471.679657,-43.212887
20851,-0.175293,-0.485596,-0.75293,17.51709,-488.708466,-50.964352
20867,-0.21814,-0.619263,-0.519287,38.085937,-471.00827,-55.358883
20884,-0.153198,-0.664795,-0.45874,27.709959,-393.249481,-49.804684
20901,0.085815,-0.681763,-0.398926,13.610839,-343.749969,-44.921871
20918,0.280884,-0.66333,-0.351563,-13.244628,-249.206528,-31.98242
20935,0.343384,-0.673828,-0.334839,-21.545408,-171.020493,-19.104004
20951,0.425293,-0.732544,-0.335327,-30.761717,-138.61084,-11.901855
20968,0.503906,-0.706177,-0.331055,-53.405758,-90.087883,4.760742
20985,0.525635,-0.656006,-0.326294,-46.264645,-59.143063,15.563964
21002,0.539551,-0.581421,-0.346191,-38.513184,-46.081539,14.282226
21018,0.574097,-0.571045,-0.405273,-22.949217,-21.423338,2.929687
21035,0.607666,-0.586914,-0.417847,-7.019042,-7.8125,-2.441406
21052,0.640015,-0.626587,-0.436401,-0.244141,-6.286621,-0.549316
21068,0.618652,-0.643555,-0.467651,5.859375,-6.286621,4.02832
21085,0.605713,-0.640747,-0.491455,5.92041,-2.197266,2.563476
21102,0.584839,-0.656494,-0.544922,5.615234,1.464844,1.342773
21118,0.566406,-0.706909,-0.591675,4.699707,8.850098,2.197266
21135,0.564453,-0.727539,-0.609131,1.953125,13.427733,8.422852
21151,0.57959,-0.742065,-0.644287,0.244141,13.85498,13.671874
21167,0.58313,-0.742798,-0.676636,-2.258301,10.925292,28.442381
21184,0.582153,-0.722046,-0.693604,2.441406,4.638672,40.466305
21201,0.589111,-0.657227,-0.721069,9.58252,0.488281,42.602535
21217,0.598267,-0.639526,-0.724121,28.869627,-11.474608,42.358395
21234,0.634766,-0.629639,-0.697754,38.391113,-19.897461,42.66357
21250,0.656494,-0.637085,-0.640381,50.781246,-38.879395,47.973629
21267,0.658447,-0.63269,-0.610962,53.344723,-52.307125,56.518551
21283,0.663086,-0.580078,-0.567017,53.161617,-55.419918,58.776852
21300,0.681519,-0.522217,-0.547852,54.38232,-54.870602,57.250973
21316,0.697266,-0.50354,-0.533203,57.617184,-48.46191,52.36816
21333,0.724365,-0.473511,-0.49231,58.959957,-44.43359,50.292965
21350,0.738892,-0.447266,-0.464844,60.607906,-37.658691,47.241207
21367,0.744141,-0.43811,-0.456543,59.265133,-34.545898,46.630856
21384,0.748169,-0.424805,-0.4375,57.128902,-33.203125,47.851559
21400,0.745483,-0.391846,-0.430176,51.147457,-27.709959,50.47607
21417,0.744995,-0.371582,-0.436157,43.579098,-16.845703,51.574703
21434,0.73999,-0.319092,-0.455322,40.954586,-10.498046,51.879879
21450,0.758057,-0.313232,-0.486816,38.757324,-0.549316,53.283688
21467,0.772095,-0.310181,-0.50061,36.132812,-2.502441,59.082027
21483,0.794312,-0.269775,-0.515625,37.658691,-8.178711,62.316891
21500,0.814087,-0.204102,-0.532104,44.677731,-26.06201,66.223145
21517,0.811279,-0.162598,-0.540161,52.001949,-47.119137,64.758301
21533,0.795898,-0.079834,-0.528687,59.326168,-56.457516,61.279293
21550,0.794678,-0.057373,-0.512939,83.251945,-70.3125,51.208492
21566,0.81311,-0.063477,-0.496948,114.929192,-82.763664,42.358395
21583,0.820801,-0.06958,-0.461548,122.802727,-88.623039,41.076656
21599,0.832642,-0.073975,-0.425049,117.492668,-94.238274,42.907711
21616,0.845215,-0.070557,-0.382446,112.853996,-92.956535,42.5415
21633,0.866455,-0.051147,-0.380859,97.839348,-87.158195,37.902832
21649,0.877197,-0.038574,-0.368164,77.026367,-83.251945,34.179687
21666,0.901001,-0.000977,-0.323975,69.580078,-81.237785,32.897949
21683,0.924438,0.026123,-0.291382,62.07275,-75.439453,29.785154
21699,0.93103,0.041504,-0.273071,61.584469,-70.251465,23.803709
21716,0.942261,0.065186,-0.236328,61.828609,-67.199707,20.26367
21733,0.943237,0.081909,-0.207642,59.93652,-59.265133,13.061522
21749,0.941772,0.087158,-0.189941,59.448238,-48.828121,6.16455
21766,0.946655,0.085571,-0.150391,59.875484,-42.114254,3.234863
21783,0.937866,0.086792,-0.111206,55.908199,-23.132322,-2.441406
21799,0.937256,0.085571,-0.097168,48.095699,3.356933,-10.0708
21816,0.946045,0.076294,-0.083618,44.250484,17.272949,-13.610839
21833,0.962769,0.043457,-0.072144,37.29248,42.968746,-18.432617
21849,0.977173,0.008423,-0.057983,26.245115,61.584469,-17.272949
21866,0.983276,-0.118164,0.045166,24.16992,71.228027,-10.986327
21883,0.876465,-0.226196,0.275513,68.42041,118.835442,31.433104
21900,0.755981,-0.260864,0.329102,58.227535,214.233383,101.684563
21916,0.536499,-0.234253,0.28833,-6.652832,267.700195,120.056145
21933,0.460693,-0.053589,0.043701,-213.561996,375.671356,97.961418
21949,0.401489,0.086426,-0.129761,-330.322235,462.524384,69.763184
21966,0.284912,0.244263,-0.479004,-311.035156,488.64743,62.805172
21983,0.225464,0.271973,-0.592773,-203.918442,509.9487,33.752441
21999,-0.031738,0.130493,-0.762939,-103.637688,517.456055,-11.718749
22016,-0.366455,-0.148071,-1.0,-76.538086,518.188477,-31.98242
22033,-0.557861,-0.223511,-1.297852,-60.302731,505.493134,-59.753414
22050,-0.585815,-0.235718,-1.420532,-46.020504,453.796356,-63.720699
22067,-0.579956,-0.315796,-1.56311,-23.986814,412.048309,-54.321285
22084,-0.523682,-0.384521,-1.778687,7.690429,301.696777,-17.211914
22101,-0.507202,-0.458862,-1.86377,-11.291503,152.526855,24.414061
22117,-0.600708,-0.425293,-1.646851,-11.657714,77.514648,42.053219
22134,-0.662109,-0.334473,-1.499634,10.925292,-33.996582,57.434078
22150,-0.74231,-0.202759,-1.286743,17.456055,-94.848625,51.086422
22167,-0.70813,-0.061768,-1.134766,22.644041,-109.802238,41.015621
22184,-0.659546,-0.019653,-1.099365,46.386715,-119.201653,9.58252
22201,-0.525024,0.017578,-1.204346,56.701656,-133.850098,-27.099607
22217,-0.290894,-0.05603,-1.495728,55.053707,-158.447266,-43.151852
22234,-0.172607,-0.11377,-1.618042,48.583981,-249.694809,-61.95068
22250,-0.046753,-0.104736,-1.587158,47.180172,-307.861328,-67.993164
22267,-0.087524,-0.022217,-1.286499,51.025387,-411.010712,-80.688469
22284,-0.117676,-0.00647,-1.148315,60.852047,-462.036102,-84.289543
22300,-0.106812,0.008057,-0.883423,72.32666,-466.003387,-81.481926
22317,0.03064,0.004517,-0.670654,103.759758,-437.316864,-73.242187
22334,0.132568,-0.025024,-0.622314,117.004387,-380.615204,-60.05859
22351,0.359375,-0.099731,-0.589355,111.083977,-354.431122,-50.964352
22367,0.518433,-0.127808,-0.502197,92.407219,-316.28418,-29.541014
22384,0.579346,-0.125244,-0.438843,70.3125,-285.217285,-7.690429
22401,0.681152,-0.105957,-0.352417,60.974117,-271.057129,1.220703
22417,0.724976,-0.02832,-0.2854,47.668453,-243.896469,10.0708
22434,0.750122,0.00354,-0.271973,49.316402,-212.219223,7.141113
22450,0.778687,0.053467,-0.247192,55.908199,-195.617661,4.455566
22467,0.800659,0.071655,-0.224487,76.35498,-161.010727,-1.953125
22483,0.82373,0.067993,-0.207031,96.55761,-130.92041,-4.882812
22500,0.864258,0.030884,-0.174561,102.783195,-118.652336,-4.333496
22516,0.892578,-0.013184,-0.157227,102.539055,-99.426262,0.305176
22533,0.91394,-0.027954,-0.151611,83.312981,-90.88134,9.460449
22550,0.943359,-0.020264,-0.134888,71.899414,-90.393059,14.892577
22566,0.942749,0.005493,-0.123657,55.603024,-90.637199,21.789549
22583,0.935303,0.056641,-0.107056,49.987789,-87.890617,19.470215
22600,0.930542,0.090088,-0.09436,52.062984,-84.045403,16.296387
22616,0.925659,0.089722,-0.09021,62.255856,-69.580078,11.047362
22633,0.925293,0.062378,-0.070435,68.17627,-61.706539,10.986327
22649,0.932861,0.026001,-0.034668,77.758789,-51.574703,17.822266
22666,0.936768,0.009766,-0.012695,77.331543,-52.673336,31.98242
22682,0.94519,-0.004517,0.047363,72.692871,-56.579586,40.771481
22698,0.947266,0.038452,0.098755,50.964352,-67.077637,57.006832
22714,0.945068,0.068848,0.124268,24.475096,-74.34082,67.199707
22731,0.924072,0.147217,0.175537,17.63916,-74.645996,71.411133
22747,0.916016,0.176758,0.20166,10.681151,-70.983887,81.237785
22763,0.905396,0.251343,0.235596,6.774902,-70.068359,85.449211
22779,0.897339,0.341187,0.258545,-2.380371,-69.335937,88.012688
22795,0.896729,0.381714,0.266968,5.798339,-67.626953,82.336418
22812,0.887817,0.442749,0.289063,14.648437,-66.772461,76.599121
22828,0.877563,0.455566,0.301514,30.2124,-63.781734,61.828609
22844,0.864258,0.468262,0.322754,37.04834,-61.279293,54.870602
22861,0.863647,0.460693,0.360962,50.292965,-56.945797,46.44775
22877,0.860229,0.452637,0.380371,57.556149,-52.36816,44.738766
22894,0.845703,0.444946,0.399536,57.189938,-47.973629,44.494625
22910,0.841064,0.437012,0.415283,50.170895,-36.437988,42.785641
22927,0.844482,0.43811,0.426636,37.658691,-29.541014,39.672852
22943,0.852173,0.458008,0.438599,30.2124,-27.526854,36.743164
22960,0.849121,0.486816,0.427856,16.479492,-23.559568,28.930662
22977,0.843628,0.501221,0.418823,12.390136,-18.798828,20.202635
22993,0.832153,0.51123,0.406616,13.97705,-16.845703,15.624999
23010,0.828003,0.505005,0.404541,20.202635,-14.160155,5.981445
23026,0.822144,0.481079,0.398926,26.794432,-11.169433,-2.319336
23043,0.824219,0.456665,0.378174,29.724119,-9.399414,-5.798339
23059,0.831421,0.446655,0.367554,35.583496,-7.141113,-10.803222
23076,0.848999,0.421021,0.357422,37.902832,-7.446289,-11.596679
23092,0.856445,0.394165,0.357666,39.367676,-9.94873,-10.31494
23109,0.858765,0.383301,0.359009,37.109375,-13.000487,-7.019042
23126,0.865479,0.363892,0.372925,34.851074,-14.953612,-5.126953
23142,0.868408,0.357788,0.40564,27.404783,-20.996092,-1.159668
23159,0.865234,0.362915,0.419434,17.63916,-26.06201,2.13623
23175,0.851929,0.375366,0.435181,14.22119,-27.282713,3.723144
23192,0.844971,0.390137,0.457275,10.742187,-27.9541,7.751464
23208,0.840942,0.399048,0.468018,9.58252,-27.282713,12.268065
23225,0.818359,0.41748,0.479736,9.70459,-26.30615,13.610839
23241,0.792725,0.428101,0.495605,11.840819,-23.315428,14.465331
23258,0.785522,0.431641,0.501587,13.85498,-18.432617,14.343261
23274,0.782837,0.434326,0.499512,13.671874,-15.319823,13.793944
23290,0.783447,0.435547,0.494995,12.268065,-9.460449,11.901855
23307,0.785278,0.443237,0.490479,11.291503,-7.8125,11.291503
23324,0.788086,0.442871,0.489746,8.911133,-6.958007,9.399414
23340,0.790771,0.437744,0.491089,4.882812,-8.422852,6.530761
23357,0.79126,0.436523,0.49707,1.708984,-9.70459,5.310058
23373,0.785889,0.442139,0.499756,-5.126953,-11.169433,2.685547
23390,0.786377,0.442993,0.500732,-9.521484,-10.19287,-0.610352
23407,0.789429,0.445801,0.502197,-10.681151,-9.277344,-2.13623
23424,0.789917,0.444458,0.503662,-11.047362,-6.896972,-4.638672
23440,0.789673,0.437622,0.501709,-10.498046,-3.784179,-7.263183
23457,0.795044,0.411377,0.505493,-10.375976,-2.319336,-8.361816
23474,0.800049,0.388916,0.554443,-12.573241,-2.13623,-7.446289
23491,0.788452,0.371948,0.612671,-14.770507,-3.295898,2.075195
23508,0.714478,0.293701,0.834106,-11.96289,2.258301,13.732909
23524,0.597534,0.302856,1.125122,-13.183593,50.781246,49.316402
23541,0.503662,0.3396,1.24353,-75.195312,169.799789,77.880859
23557,0.317993,0.41333,1.206909,-123.168938,252.014145,91.796867
23574,0.22876,0.568848,0.858521,-190.429672,413.879364,115.600578
23590,0.234741,0.654297,0.63269,-191.101059,523.4375,126.831047
23607,0.307007,0.645996,0.175537,-175.7202,552.856445,116.516106
23623,0.290405,0.527588,-0.005859,-134.094238,578.369141,57.556149
23640,0.074585,0.255737,-0.26355,-135.559082,604.003906,-0.854492
23657,-0.089966,0.119751,-0.710327,-158.813477,616.821289,-21.240232
23673,-0.130127,0.148315,-0.96106,-231.506332,604.614258,-47.180172
23690,-0.1427,0.232178,-1.372314,-253.051743,573.669434,-56.396481
23707,-0.028687,0.251465,-1.804077,-218.444809,456.909149,-65.612793
23724,0.034546,0.265137,-1.91272,-100.158684,279.47998,-62.19482
23740,0.016357,0.196533,-1.898804,-38.513184,186.340317,-56.884762
23757,-0.153198,0.11377,-1.592773,16.601562,23.437498,-33.508301
23774,-0.221558,0.145142,-1.429321,4.333496,-77.148437,-2.01416
23791,-0.248291,0.292114,-1.265991,1.159668,-105.957024,8.728027
23807,-0.151001,0.379395,-1.281982,17.211914,-149.536133,14.648437
23824,-0.082153,0.369629,-1.306763,46.691891,-200.256332,9.460449
23841,0.058472,0.318848,-1.267944,58.898922,-228.820786,5.981445
23857,0.218384,0.353149,-1.151367,64.63623,-286.010742,1.098633
23874,0.28064,0.376343,-1.071655,66.101074,-340.759247,-1.708984
23891,0.303955,0.434814,-0.848022,74.523926,-362.853973,-4.760742
23908,0.282471,0.491821,-0.592529,99.731438,-384.521454,-17.63916
23925,0.318726,0.511475,-0.515991,123.718254,-379.02829,-41.076656
23942,0.469482,0.46936,-0.418213,132.263184,-374.999969,-50.47607
23958,0.560303,0.361206,-0.213989,154.968262,-377.1362,-54.626461
23975,0.578003,0.324097,-0.070435,181.945786,-380.493134,-41.137691
23992,0.608643,0.261597,0.223145,201.843246,-362.487762,-15.319823
24009,0.644897,0.18457,0.413452,191.58934,-343.99411,-1.342773
24025,0.66333,0.192993,0.463623,111.022942,-291.442871,13.122558
24042,0.687866,0.33252,0.515991,64.086914,-261.108398,11.474608
24059,0.694702,0.535034,0.48584,16.479492,-200.683578,-3.479004
24076,0.693359,0.608032,0.446167,33.26416,-154.968262,-24.963377
24092,0.685669,0.639282,0.367188,57.006832,-141.601562,-36.315918
24109,0.673462,0.557739,0.308228,120.483391,-126.892082,-55.786129
24126,0.663818,0.502441,0.285278,168.518051,-121.337883,-65.856934
24142,0.639038,0.401733,0.265991,178.405746,-122.497551,-68.359375
24159,0.618408,0.304932,0.303101,178.344711,-132.751465,-69.946289
24175,0.61145,0.245117,0.338623,160.644516,-151.733398,-66.772461
24192,0.595825,0.156006,0.423218,142.272949,-162.292465,-64.51416
24209,0.550659,0.09314,0.518433,93.811028,-181.274399,-59.509274
24225,0.518677,0.065796,0.578491,57.739254,-195.678696,-48.828121
24242,0.437012,0.008057,0.714111,43.701168,-199.829086,-41.503902
24258,0.359863,-0.033325,0.837891,13.305663,-196.838364,-25.512693
24275,0.332153,-0.034424,0.894531,-16.906738,-177.612289,-7.93457
24292,0.308472,0.020508,0.967041,-28.686522,-164.978012,-2.441406
24308,0.290405,0.072998,1.013794,-32.775879,-142.272949,-3.234863
24325,0.279663,0.082886,1.038696,-4.577637,-127.258293,-6.591796
24342,0.263062,0.067139,1.069824,13.97705,-121.520988,-5.432128
24359,0.26001,0.054443,1.078735,32.775879,-111.633293,-0.488281
24375,0.253906,0.05835,1.05835,23.681639,-113.769524,-0.061035
24392,0.225464,0.027466,1.152222,27.038572,-117.614738,-3.540039
24409,0.205566,-0.013428,1.206421,46.691891,-113.891594,-5.798339
24426,0.169312,-0.056641,1.254639,52.795406,-93.322746,3.601074
24442,0.165527,-0.038452,1.273682,48.095699,-80.749504,10.437011
24459,0.173706,-0.031982,1.276978,30.2124,-59.570309,18.188477
24475,0.183838,0.002808,1.247314,14.22119,-47.973629,15.502929
24492,0.172485,0.047607,1.203857,12.390136,-45.288082,14.282226
24509,0.165527,0.05249,1.174194,14.160155,-45.532223,13.366698
24525,0.137085,0.052002,1.143066,13.610839,-46.386715,13.488769
24542,0.113403,0.084229,1.130981,10.31494,-45.532223,15.014647
24558,0.10437,0.102173,1.119751,9.82666,-42.724606,13.244628
24575,0.088135,0.109009,1.097412,10.925292,-41.503902,10.925292
24591,0.068604,0.097778,1.080444,12.451171,-39.794922,5.676269
24608,0.058838,0.090454,1.076538,11.840819,-39.306641,2.197266
24625,0.039551,0.081177,1.073486,10.803222,-38.513184,1.89209
24641,0.02356,0.087402,1.057251,6.286621,-35.217285,0.854492
24658,0.018066,0.084106,1.05127,3.662109,-33.813477,-1.525879
24675,0.015869,0.082031,1.051147,2.868652,-33.752441,-3.173828
24692,0.007935,0.074097,1.061646,3.662109,-31.066893,-6.652832
24709,0.001709,0.062378,1.063232,3.662109,-24.414061,-5.737304
24725,-0.001831,0.053833,1.052734,2.746582,-20.690916,-4.577637
24742,0.003784,0.059937,1.033203,1.770019,-14.709472,-4.943848
24758,0.00708,0.056641,1.023315,1.953125,-12.023925,-8.117676
24775,0.007813,0.044678,1.016724,2.075195,-11.474608,-9.094238
24792,0.00415,0.035645,1.020874,0.854492,-10.437011,-8.361816
24808,0.000977,0.033936,1.024048,-2.502441,-11.291503,-7.202148
24825,-0.014404,0.026001,1.058838,-4.577637,-12.390136,-7.141113
24842,-0.052856,0.030151,1.17627,-6.958007,-9.277344,-8.361816
24859,-0.087524,0.007202,1.267334,-21.972654,24.780272,-12.695312
24875,-0.17981,-0.012939,1.513184,-39.001465,62.683102,-10.437011
24893,-0.259399,-0.005737,1.740479,-71.777344,181.701645,-0.854492
24910,-0.267456,-0.033447,1.805786,-110.53466,310.974121,4.577637
24926,-0.151733,-0.0177,1.870483,-132.8125,365.53952,7.995605
24943,0.109497,0.155762,1.667847,-132.324219,461.242645,13.793944
24960,0.260498,0.204346,1.485107,-92.407219,510.681122,9.94873
24976,0.451538,0.214722,1.117798,-90.75927,516.540527,8.300781
24992,0.44397,0.173096,0.887451,-112.731926,515.258789,11.169433
25009,0.34436,0.119385,0.397339,-129.638672,508.300751,12.145995
25025,0.237549,0.108765,0.048584,-141.296387,482.543915,13.610839
25041,0.220459,0.098877,-0.069458,-115.600578,449.157684,19.958496
25058,0.338257,0.141479,-0.403809,-99.914543,427.490204,28.320311
25074,0.495605,0.237061,-0.609741,-99.792473,352.050751,48.400875
25090,0.55127,0.271484,-0.641724,-71.533203,242.980942,62.744137
25107,0.639404,0.328247,-0.683594,-49.682613,190.429672,66.833496
25123,0.657471,0.358887,-0.693726,-18.432617,94.970695,59.204098
25139,0.650635,0.440796,-0.659058,-7.263183,49.865719,45.471188
25155,0.649902,0.484497,-0.571655,16.174316,-25.756834,2.807617
25172,0.665405,0.46167,-0.559814,46.813961,-86.059563,-41.992184
25189,0.709473,0.378052,-0.527344,61.157223,-119.934074,-58.04443
25206,0.740723,0.277832,-0.424316,88.256828,-193.6035,-74.21875
25222,0.74707,0.233032,-0.340454,97.717278,-268.310547,-75.073242
25239,0.710937,0.207642,-0.13855,95.764153,-300.354004,-69.885254
25255,0.649902,0.218628,0.084595,110.41259,-347.595184,-55.969234
25272,0.593994,0.19043,0.168579,135.253906,-381.16452,-38.452148
25289,0.520386,0.142578,0.375732,143.859863,-389.831512,-27.770994
25305,0.369751,0.151611,0.64502,160.27832,-400.085419,-18.249512
25322,0.320801,0.100464,0.755127,127.990715,-390.563934,-19.470215
25339,0.222656,0.012451,0.934326,94.482414,-368.713348,-18.432617
25356,0.270264,0.15332,1.020142,19.042969,-301.635742,-16.479492
25372,0.291016,0.277832,1.064209,19.348145,-257.446289,-19.348145
25389,0.297974,0.262817,1.039429,51.452633,-248.413071,-22.033689
25405,0.275635,0.18457,1.010986,127.502434,-248.596176,-27.770994
25422,0.166382,0.005493,0.990112,148.498535,-251.586899,-25.207518
25438,0.030762,-0.165527,1.085571,143.310547,-249.328598,-8.728027
25455,-0.008667,-0.187866,1.140259,109.130852,-224.304184,2.075195
25472,-0.039551,-0.17688,1.146118,78.979492,-205.20018,1.770019
25489,-0.091309,-0.138184,1.114746,31.616209,-171.691879,1.708984
25505,-0.115356,-0.125732,1.104492,21.179197,-147.521973,14.160155
25522,-0.152222,-0.109009,1.089478,21.667479,-138.366699,22.15576
25539,-0.169189,-0.085205,1.070801,26.977537,-128.356934,31.86035
25556,-0.174805,-0.078247,1.067261,39.550781,-123.046867,33.569336
25573,-0.20105,-0.081421,1.080444,45.593258,-117.431633,33.874512
25590,-0.245239,-0.140137,1.100952,46.081539,-97.106926,32.958984
25606,-0.265259,-0.166504,1.101929,29.296873,-71.838379,34.545898
25623,-0.283691,-0.177002,1.091431,17.456055,-61.218258,36.071777
25640,-0.282471,-0.158813,1.080688,-1.464844,-47.729488,39.245605
25657,-0.27832,-0.14978,1.075317,-9.033203,-44.799801,41.503902
25674,-0.277222,-0.139893,1.070435,-3.784179,-45.349117,45.959469
25690,-0.29248,-0.13623,1.071167,0.12207,-44.372555,49.987789
25707,-0.300781,-0.141235,1.072144,4.333496,-40.52734,55.664059
25724,-0.307373,-0.158936,1.061646,1.403808,-36.315918,55.664059
25740,-0.309204,-0.15918,1.035522,-1.281738,-34.484863,54.870602
25757,-0.31189,-0.161133,1.023438,-3.845215,-30.334471,56.701656
25774,-0.313843,-0.161377,1.003662,-2.868652,-25.512693,63.110348
25791,-0.296875,-0.131958,0.977173,-1.342773,-24.108885,65.673828
25808,-0.286255,-0.113892,0.9646,5.371093,-25.024412,67.687988
25825,-0.277832,-0.122559,0.956299,12.756347,-30.273436,66.650391
25842,-0.28186,-0.143921,0.961548,14.038085,-32.531738,66.162109
25859,-0.281128,-0.138184,0.951782,10.620116,-33.26416,66.711426
25876,-0.275513,-0.12793,0.938477,7.568359,-30.151365,65.429687
25892,-0.252808,-0.106079,0.904419,8.422852,-28.137205,63.171383
25910,-0.237305,-0.116821,0.887573,14.160155,-26.367186,57.800289
25927,-0.235107,-0.126831,0.884521,19.042969,-28.320311,53.955074
25943,-0.241699,-0.153564,0.895264,19.775391,-30.639647,52.429195
25960,-0.264526,-0.177734,0.914307,16.601562,-36.621094,50.109859
25977,-0.279541,-0.177979,0.919189,8.117676,-41.381832,46.264645
25994,-0.31897,-0.181885,0.931396,5.371093,-42.236324,43.945309
26011,-0.376465,-0.186768,0.959473,3.540039,-40.344234,41.870113
26028,-0.393066,-0.186157,0.971069,5.493164,-31.433104,42.602535
26045,-0.384888,-0.168945,0.958374,6.652832,-24.414061,42.053219
26062,-0.376587,-0.169556,0.933472,9.155273,-12.634276,36.560059
26079,-0.380859,-0.170776,0.923828,11.901855,-6.835937,29.541014
26096,-0.385498,-0.191162,0.91333,12.145995,-5.126953,27.160643
26112,-0.385864,-0.229492,0.908447,8.605957,-4.089355,23.315428
26129,-0.387451,-0.241089,0.907104,0.366211,-3.967285,20.751951
26146,-0.390991,-0.238403,0.898437,-4.821777,-3.723144,19.65332
26163,-0.394897,-0.231201,0.890503,-11.413573,-4.150391,15.441894
26180,-0.39856,-0.229492,0.887939,-10.864257,-4.455566,10.19287
26196,-0.402832,-0.247925,0.882446,-9.033203,-3.967285,7.995605
26213,-0.405273,-0.266846,0.876099,-6.591796,-3.356933,3.784179
26230,-0.405273,-0.276733,0.876221,-5.004883,-5.187988,-0.244141
26248,-0.411377,-0.282227,0.87439,-4.943848,-7.8125,-2.563476
26264,-0.411011,-0.27771,0.860718,-4.272461,-8.666992,-3.845215
26282,-0.401489,-0.265503,0.838867,1.037598,-10.925292,-7.873535
26298,-0.396973,-0.261719,0.830078,16.174316,-14.892577,-12.329101
26315,-0.395752,-0.272705,0.820679,26.672361,-17.944336,-13.488769
26332,-0.39624,-0.328247,0.825073,45.166012,-26.977537,-12.817382
26349,-0.399414,-0.361572,0.828125,48.645016,-38.269043,-11.230468
26366,-0.413818,-0.409302,0.8302,43.273922,-42.785641,-10.437011
26383,-0.433838,-0.443115,0.843628,23.193357,-48.278805,-7.141113
26400,-0.443848,-0.442749,0.859863,0.12207,-46.874996,2.685547
26417,-0.477295,-0.395996,0.9021,-11.047362,-45.043941,8.300781
26434,-0.530884,-0.35791,0.996704,-18.676758,-39.978027,17.456055
26451,-0.568848,-0.338989,1.078491,-1.647949,-21.545408,31.066893
26467,-0.69812,-0.317139,1.460571,18.127441,2.13623,39.367676
26484,-0.858887,-0.373657,1.972778,32.043457,112.121574,52.12402
26501,-0.944214,-0.450317,2.121948,-30.456541,302.429199,57.678219
26517,-0.957397,-0.437622,2.079346,-74.890137,400.939911,60.668941
26534,-0.747681,-0.255127,1.857788,-145.812988,542.114258,73.669434
26551,-0.615601,-0.236328,1.725952,-149.291992,600.891113,80.566399
26568,-0.322266,-0.282227,1.277588,-149.291992,615.356445,75.012207
26585,-0.107544,-0.142944,0.775024,-184.326157,609.558105,25.451658
26602,-0.089722,-0.090332,0.640503,-170.959457,577.453613,-44.738766
26619,-0.109497,-0.267822,0.285767,-150.268555,560.791016,-71.105957
26636,-0.071899,-0.441772,-0.195068,-151.672363,508.727997,-106.689445
26652,-0.010376,-0.4198,-0.36438,-168.518051,400.878876,-130.493164
26670,0.215942,-0.375977,-0.521118,-153.930664,329.040497,-130.310059
26687,0.515869,-0.485107,-0.537109,-71.166992,176.330551,-90.332024
26704,0.617676,-0.485474,-0.498535,11.96289,24.841307,-9.033203
26721,0.641968,-0.378662,-0.344238,38.085937,-107.666008,66.52832
26738,0.610596,-0.223389,-0.181274,40.466305,-162.048325,92.163078
26755,0.563721,-0.03125,-0.060425,49.621578,-251.464828,118.530266
26771,0.52771,-0.001343,-0.036011,50.842281,-330.2612,114.685051
26788,0.446411,-0.008789,0.039795,43.640133,-373.35202,101.989738
26804,0.373291,0.035156,0.134644,50.415035,-460.937469,61.279293
26821,0.123413,0.120605,0.460937,74.21875,-499.206512,38.391113
26837,-0.226074,-0.017822,0.895508,172.790512,-539.550781,-4.760742
26854,-0.321655,-0.255493,1.070923,252.136215,-506.530731,-13.366698
26871,-0.338501,-0.786987,1.318848,231.445297,-466.125458,4.333496
26888,-0.238647,-0.841919,1.42041,68.237305,-354.797333,67.565918
26905,-0.194824,-0.614136,1.444824,-74.707031,-241.821274,87.036125
26922,-0.177734,-0.055664,1.462158,-90.087883,-148.55957,59.814449
26939,-0.161011,0.106079,1.340454,-64.819336,-112.365715,47.546383
26955,-0.160522,0.071045,1.29187,3.417969,-72.32666,28.381346
26972,-0.170532,-0.058105,1.269409,46.752926,-56.945797,16.723633
26989,-0.163574,-0.230591,1.241821,51.818844,-47.912594,13.427733
27006,-0.173706,-0.268066,1.194458,35.522461,-24.414061,11.657714
27023,-0.213257,-0.224121,1.067627,9.033203,-6.103515,12.145995
27040,-0.263184,-0.169556,0.973999,4.02832,0.488281,12.268065
27057,-0.268188,-0.179077,0.878174,2.01416,11.047362,13.061522
27074,-0.261108,-0.194458,0.829346,-2.197266,11.596679,12.878417
27091,-0.249756,-0.263672,0.779907,-5.126953,6.835937,12.939452
27108,-0.233276,-0.394165,0.799072,-9.643555,-6.286621,18.920898
27125,-0.234009,-0.443726,0.809326,-18.432617,-20.690916,40.40527
27142,-0.238281,-0.481689,0.832275,-22.644041,-29.724119,54.504391
27159,-0.234863,-0.429443,0.862061,-21.545408,-51.269527,78.00293
27176,-0.23584,-0.387817,0.887329,-5.249023,-70.922852,91.674797
27193,-0.250732,-0.31897,0.964233,8.483887,-76.23291,95.947258
27209,-0.317627,-0.225952,1.038086,40.283199,-77.148437,97.778313
27226,-0.336426,-0.191406,1.067749,69.641113,-67.687988,90.148918
27243,-0.303467,-0.170776,1.083496,78.796387,-59.875484,82.153313
27259,-0.269531,-0.182495,1.076172,87.646477,-42.968746,63.049313
27275,-0.260864,-0.197266,1.074829,88.500969,-28.625486,52.856441
27292,-0.250854,-0.217285,1.084839,86.669914,-25.512693,50.842281
27308,-0.247681,-0.200562,1.072144,81.970207,-27.160643,43.823238
27325,-0.24646,-0.210449,1.052368,81.359856,-23.254393,33.325195
27341,-0.251465,-0.28418,1.008179,82.397453,-16.723633,30.029295
27357,-0.235229,-0.320435,0.984009,80.810539,-3.845215,27.587889
27374,-0.178711,-0.365356,0.933838,78.674316,-2.01416,25.756834
27390,-0.179932,-0.398682,0.914795,75.012207,-7.751464,22.583006
27407,-0.191528,-0.431763,0.907227,66.162109,-13.366698,26.123045
27423,-0.203125,-0.463501,0.875977,58.227535,-14.038085,27.709959
27440,-0.225586,-0.440308,0.849976,46.936031,-13.122558,26.550291
27457,-0.223877,-0.43042,0.83252,46.44775,-9.70459,23.559568
27473,-0.208008,-0.457764,0.799683,49.072262,-9.277344,21.240232
27490,-0.204346,-0.519531,0.779541,49.438473,-13.061522,16.174316
27507,-0.207886,-0.539673,0.7771,38.574219,-20.935057,14.648437
27524,-0.236206,-0.565186,0.792358,32.592773,-23.681639,14.648437
27541,-0.25708,-0.566772,0.792847,20.874022,-23.010252,15.86914
27558,-0.258667,-0.568115,0.784546,11.474608,-21.240232,13.610839
27575,-0.251465,-0.569092,0.786743,9.58252,-22.27783,11.901855
27593,-0.252075,-0.599609,0.799805,7.507324,-27.526854,8.422852
27609,-0.260742,-0.616943,0.803223,3.356933,-29.602049,3.479004
27626,-0.27478,-0.602173,0.814941,0.854492,-28.07617,2.868652
27643,-0.252686,-0.551392,0.814331,-3.723144,-24.16992,2.01416
27659,-0.241333,-0.525757,0.81543,-3.845215,-33.02002,-10.742187
27676,-0.273804,-0.51355,0.855469,-0.915527,-43.823238,-20.874022
27693,-0.347534,-0.527344,0.8479,1.403808,-60.729977,-44.494625
27711,-0.384644,-0.546021,0.80957,-10.31494,-59.570309,-69.274902
27727,-0.442261,-0.590698,0.720459,-23.132322,-44.616695,-75.317383
27745,-0.408081,-0.622925,0.630615,-28.442381,-38.635254,-70.983887
27762,-0.365356,-0.628174,0.587402,-27.9541,-37.29248,-58.1665
27779,-0.365479,-0.63269,0.593994,-23.132322,-44.799801,-46.32568
27796,-0.404785,-0.61853,0.655884,-20.996092,-47.546383,-39.611816
27813,-0.466064,-0.61145,0.771973,-16.601562,-45.471188,-22.766111
27830,-0.51123,-0.605103,0.868164,-4.02832,-26.123045,4.699707
27847,-0.66687,-0.585083,1.20105,7.751464,-0.976562,24.719236
27864,-0.952881,-0.625854,1.691895,30.395506,122.863762,69.274902
27881,-1.091431,-0.682617,1.852905,-53.466793,335.998505,96.55761
27897,-0.984375,-0.476074,1.880005,-99.975578,428.771942,98.144524
27914,-0.41272,-0.311401,1.745605,-116.821281,530.639648,62.438961
27931,-0.20459,-0.347778,1.607056,-113.281242,563.720703,-0.12207
27948,-0.048706,-0.363892,1.117676,-139.343262,574.157715,-35.644531
27966,0.060303,-0.321777,0.505005,-181.030258,575.378418,-123.046867
27982,0.091064,-0.403442,0.300171,-151.733398,511.047333,-187.072739
27999,0.098267,-0.656616,0.044922,-132.446289,389.892548,-186.096176
28017,0.142578,-0.806885,-0.129395,-125.854485,319.885254,-160.27832
28034,0.118286,-0.786865,-0.154297,-90.454094,178.466782,-82.336418
28050,0.096924,-0.768799,-0.118896,-36.92627,59.448238,-12.573241
28067,0.098877,-0.706787,-0.067505,-15.747069,12.573241,10.31494
28084,0.158447,-0.545654,-0.017944,15.197753,-66.955566,30.639647
28100,0.195312,-0.455688,0.022583,57.739254,-138.61084,33.813477
28117,0.284302,-0.373657,0.053101,82.94677,-173.461899,35.095215
28133,0.345947,-0.403198,0.054687,121.704094,-251.281723,37.780762
28150,0.46814,-0.432251,0.057129,123.535149,-356.567352,38.94043
28166,0.307617,-0.392944,0.224487,119.934074,-417.846649,38.94043
28183,0.084839,-0.392212,0.388672,122.497551,-522.399902,36.437988
28200,-0.445557,-0.412231,0.75061,127.136223,-552.612305,35.095215
28217,-0.707031,-0.379639,0.931763,105.224602,-555.480957,31.311033
28234,-0.751953,-0.368286,0.970947,41.442867,-491.271942,9.033203
28250,-0.793945,-0.287598,1.109863,14.343261,-440.307587,-4.760742
28267,-0.69812,-0.156372,1.112915,-24.353025,-323.364227,-31.005857
28283,-0.669678,-0.140503,1.086792,-20.019531,-236.633286,-71.350098
28300,-0.69519,-0.178711,1.083862,-0.915527,-209.716782,-87.768547
28317,-0.750244,-0.295288,1.110107,35.644531,-177.917465,-101.501457
28334,-0.764526,-0.356689,1.106201,59.265133,-154.602051,-104.125969
28351,-0.783081,-0.473633,1.100952,63.537594,-139.038086,-103.088371
28367,-0.761719,-0.519409,1.043945,46.081539,-98.81591,-94.78759
28384,-0.758911,-0.534668,0.99939,17.028809,-57.983395,-96.618645
28401,-0.755981,-0.531616,0.887573,9.70459,-39.733887,-97.595207
28418,-0.773193,-0.475098,0.814575,6.16455,-9.765625,-95.581047
28435,-0.786865,-0.422363,0.79895,27.770994,16.540527,-78.674316
28452,-0.786499,-0.188721,0.757812,42.114254,25.573729,-68.664551
28469,-0.751831,0.001709,0.735962,92.041008,26.611326,-57.250973
28486,-0.751343,-0.035522,0.722656,156.433105,21.972654,-76.965332
28503,-0.774658,-0.146973,0.665283,178.466782,37.536621,-105.712883
28520,-0.802856,-0.24231,0.631348,174.011215,50.47607,-115.234367
28537,-0.808838,-0.302856,0.631592,151.550293,74.584961,-122.192375
28553,-0.805054,-0.304199,0.628052,117.248528,93.383781,-123.596184
28571,-0.78479,-0.269165,0.5802,100.46386,101.440422,-127.624504
28587,-0.78064,-0.269409,0.523193,84.289543,118.041985,-142.944336
28605,-0.785156,-0.324219,0.529907,85.327141,129.943848,-150.756836
28621,-0.771118,-0.434814,0.588501,80.01709,132.568359,-150.024414
28639,-0.751709,-0.38623,0.618774,43.029781,128.112793,-145.141602
28656,-0.75769,-0.344849,0.623291,8.911133,111.816399,-146.789551
28674,-0.762939,-0.291748,0.603638,-4.150391,90.75927,-158.874512
28691,-0.734375,-0.228271,0.573364,-4.516602,79.589844,-163.146957
28708,-0.761597,-0.182739,0.602051,11.779784,62.988277,-162.597641
28725,-0.774292,-0.174561,0.63147,40.283199,63.171383,-153.808594
28743,-0.789307,-0.205933,0.672119,53.955074,68.969727,-148.132324
28759,-0.783691,-0.215332,0.663696,71.594238,83.740227,-138.183594
28776,-0.768921,-0.227661,0.661743,80.200195,87.585442,-132.202148
28794,-0.732788,-0.256836,0.679321,83.496086,84.899895,-129.821777
28811,-0.708984,-0.292969,0.702271,83.496086,77.697754,-123.90136
28828,-0.727539,-0.323486,0.714355,78.857422,77.209473,-111.755363
28844,-0.755005,-0.343628,0.73584,72.631836,78.979492,-103.515617
28861,-0.708618,-0.304688,0.748047,57.922359,76.599121,-86.914055
28878,-0.672363,-0.289429,0.750977,50.659176,65.856934,-75.378418
28895,-0.655151,-0.307861,0.771118,48.46191,59.570309,-71.533203
28911,-0.675903,-0.303345,0.810181,36.865234,46.142574,-66.772461
28928,-0.68103,-0.300903,0.826172,22.27783,34.423828,-62.561031
28944,-0.664307,-0.292358,0.825073,14.892577,31.005857,-59.570309
28962,-0.61084,-0.260132,0.810791,1.464844,28.381346,-49.072262
28979,-0.581299,-0.214966,0.788818,10.253905,30.09033,-37.04834
28995,-0.541382,-0.169312,0.770142,20.874022,31.616209,-33.447266
29012,-0.505127,-0.161255,0.769043,23.376463,31.372068,-26.30615
29029,-0.491699,-0.15918,0.77124,29.235838,25.817869,-21.667479
29046,-0.46228,-0.168579,0.780396,32.287598,16.723633,-15.441894
29063,-0.436279,-0.163818,0.789062,31.555174,12.390136,-11.291503
29080,-0.418579,-0.147461,0.79187,24.16992,5.737304,-4.760742
29097,-0.414795,-0.133545,0.796997,15.86914,-2.624511,-3.112793
29114,-0.428345,-0.132446,0.817383,15.075683,-7.690429,-3.540039
29132,-0.45105,-0.16333,0.834473,12.695312,-15.624999,-5.126953
29149,-0.462036,-0.173218,0.838135,6.591796,-19.226074,-6.04248
29166,-0.476196,-0.184937,0.839722,3.356933,-19.897461,-5.92041
29183,-0.476807,-0.167236,0.823608,-1.586914,-20.26367,-4.943848
29200,-0.477783,-0.153687,0.812744,1.220703,-19.470215,-3.356933
29216,-0.482666,-0.141113,0.803101,6.04248,-19.836426,-2.319336
29233,-0.486328,-0.129517,0.803955,16.174316,-23.864744,-0.915527
29250,-0.489624,-0.109009,0.806885,24.475096,-34.240723,-0.488281
29267,-0.525879,-0.056274,0.860352,32.043457,-43.884274,-0.12207
29284,-0.624512,-0.058472,1.167969,72.32666,-69.274902,3.479004
29300,-0.692139,-0.084839,1.439331,136.71875,-46.44775,7.995605
29317,-0.811523,-0.110474,1.900879,149.780273,16.113281,12.390136
29333,-0.980591,-0.108887,1.782227,146.484375,223.449692,21.240232
29350,-1.057007,-0.094116,1.608765,187.68309,404.846161,16.052246
29367,-1.005371,-0.052368,1.349609,223.327621,465.332001,5.676269
29383,-0.748779,-0.135132,1.157104,260.314941,553.161621,-26.794432
29400,-0.640625,-0.214722,1.05188,243.774399,611.38916,-49.743649
29417,-0.443359,-0.419189,0.752075,218.261703,626.403809,-55.419918
29434,-0.172241,-0.542236,0.471436,117.370598,609.985352,-70.617676
29451,-0.064697,-0.492798,0.37439,15.747069,544.189453,-87.341301
29467,0.022583,-0.415405,0.255981,-0.183105,512.268066,-89.416496
29484,0.164673,-0.484253,0.005249,-5.493164,459.594696,-82.458488
29501,0.244995,-0.486938,-0.100586,-22.216795,381.713837,-78.552246
29517,0.338135,-0.447754,-0.259888,-33.569336,328.857391,-79.467773
29534,0.35437,-0.546631,-0.325317,-28.503416,217.163071,-84.167473
29550,0.373169,-0.623901,-0.342896,6.225585,106.445305,-86.059563
29567,0.442749,-0.797729,-0.370483,18.981934,49.804684,-81.603996
29583,0.477905,-0.902222,-0.347534,30.273436,-65.734863,-53.100582
29599,0.518433,-1.077515,-0.234253,30.2124,-124.877922,-27.9541
29616,0.462158,-1.162231,-0.044678,21.667479,-239.807114,36.987305
29633,0.392822,-1.145264,0.071289,-7.202148,-336.364716,101.318352
29649,0.2229,-1.0354,0.258301,-28.137205,-375.305145,127.624504
29666,0.056274,-0.821777,0.380127,-69.396973,-436.706512,160.27832
29682,-0.005615,-0.716431,0.424561,-98.876945,-481.811493,164.978012
29699,-0.156372,-0.383423,0.498291,-113.159172,-494.750946,160.339355
29715,-0.279419,-0.098145,0.725708,-103.881828,-488.586395,129.394531
29732,-0.267944,-0.060669,0.865723,-61.218258,-430.419891,58.227535
29749,-0.254028,-0.144043,1.049683,-55.358883,-385.436981,25.695799
29766,-0.272949,-0.228516,1.088379,-37.841797,-289.367676,1.342773
29782,-0.288818,-0.239746,1.11731,-2.746582,-210.082993,3.051758
29799,-0.296753,-0.286377,1.192017,15.075683,-174.011215,2.929687
29816,-0.274902,-0.354858,1.190674,38.269043,-101.501457,2.990722
29832,-0.26355,-0.365234,1.159668,42.602535,-40.161129,-2.441406
29849,-0.241821,-0.412354,1.074707,43.762203,-17.883301,-8.483887
29866,-0.217041,-0.471802,1.011963,38.269043,6.774902,-20.019531
29883,-0.204224,-0.487671,0.995605,23.437498,11.96289,-26.30615
29899,-0.189331,-0.494873,0.97168,16.601562,10.31494,-27.160643
29916,-0.166504,-0.484985,0.957886,11.779784,5.676269,-27.587889
29933,-0.154907,-0.464844,0.945557,18.066406,8.361816,-26.611326
29949,-0.150391,-0.415283,0.914551,25.939939,11.840819,-26.367186
29966,-0.153564,-0.369263,0.903442,56.762691,17.76123,-26.489256
29983,-0.151733,-0.348877,0.895996,88.012688,21.606443,-28.991697
29999,-0.150513,-0.33374,0.869141,98.69384,22.766111,-31.799314
30016,-0.152954,-0.343384,0.85376,110.41259,26.000975,-39.123535
30033,-0.176392,-0.380859,0.823486,106.994621,35.03418,-46.813961
30050,-0.213501,-0.419556,0.792725,101.501457,41.503902,-51.513668
30066,-0.222656,-0.437256,0.769165,91.064445,57.739254,-62.744137
30083,-0.214355,-0.466064,0.706543,88.073723,70.495605,-74.157715
30100,-0.198486,-0.515137,0.67688,90.88134,71.044922,-77.331543
30117,-0.198608,-0.549805,0.683594,100.524895,54.504391,-75.744629
30133,-0.190186,-0.583008,0.67749,107.849113,32.775879,-70.739746
30150,-0.177856,-0.611694,0.600708,109.069817,29.418943,-68.969727
30167,-0.188232,-0.630249,0.557007,112.243645,39.367676,-66.955566
30184,-0.243042,-0.696655,0.530151,116.271965,50.903316,-68.054199
30201,-0.268066,-0.789307,0.563477,114.379875,53.283688,-70.3125
30217,-0.263672,-0.84082,0.578125,88.256828,51.818844,-73.059082
30234,-0.247437,-0.894409,0.58606,35.644531,43.945309,-70.251465
30251,-0.255737,-0.833862,0.57959,10.437011,38.94043,-69.641113
30267,-0.266968,-0.797363,0.568481,-14.709472,33.874512,-70.861816
30285,-0.301514,-0.730957,0.536621,-10.498046,37.353516,-70.983887
30302,-0.330688,-0.651367,0.526367,-1.708984,38.513184,-71.166992
30319,-0.353638,-0.610718,0.526245,26.672361,34.851074,-73.486328
30336,-0.36438,-0.626709,0.522095,58.776852,27.9541,-81.17675
30352,-0.38855,-0.697754,0.507935,71.472168,25.329588,-84.655754
30369,-0.428589,-0.803833,0.506714,87.585442,26.611326,-85.510246
30386,-0.444458,-0.849976,0.509033,81.115715,36.071777,-80.627434
30403,-0.466064,-0.877319,0.499146,68.908691,41.442867,-78.24707
30420,-0.481079,-0.849243,0.468506,39.245605,48.950191,-76.843262
30436,-0.4823,-0.830688,0.446655,21.057127,51.452633,-79.345703
30453,-0.46582,-0.817993,0.399048,18.310547,51.330563,-80.322258
30469,-0.459839,-0.833496,0.384155,20.26367,45.593258,-78.613281
30486,-0.466553,-0.867798,0.388794,26.000975,33.630371,-71.044922
30503,-0.468628,-0.897583,0.400757,27.038572,27.526854,-66.040039
30520,-0.465942,-0.911621,0.402954,22.460936,15.624999,-58.04443
30536,-0.459839,-0.910767,0.391113,14.343261,3.295898,-51.330563
30553,-0.46521,-0.906372,0.410034,11.291503,-4.150391,-46.630856
30570,-0.485718,-0.891235,0.454346,10.253905,-22.033689,-34.484863
30587,-0.49292,-0.887939,0.464966,12.939452,-32.714844,-26.977537
30605,-0.501587,-0.924561,0.467285,12.390136,-33.02002,-25.451658
30622,-0.526611,-0.961182,0.484253,0.305176,-30.944822,-22.033689
30639,-0.54126,-0.956787,0.500244,-18.371582,-31.799314,-14.465331
30656,-0.5354,-0.913208,0.506958,-25.268553,-30.761717,-9.70459
30673,-0.515015,-0.851318,0.490356,-30.639647,-23.376463,0.183105
30690,-0.507202,-0.825439,0.488647,-21.911619,-15.686034,6.958007
30707,-0.496338,-0.785278,0.500977,-7.202148,-17.456055,11.291503
30724,-0.498657,-0.759766,0.521606,-0.549316,-20.26367,13.366698
30742,-0.496094,-0.750732,0.526245,8.361816,-22.521971,16.174316
30759,-0.494507,-0.745361,0.520386,11.108397,-16.906738,15.136718
30775,-0.497681,-0.738281,0.501343,10.437011,-11.535644,13.427733
30792,-0.497925,-0.734253,0.489624,6.04248,-0.305176,9.521484
30809,-0.49353,-0.733032,0.483643,0.732422,6.103515,7.019042
30826,-0.482178,-0.730957,0.474121,-1.708984,6.286621,6.774902
30843,-0.480103,-0.710449,0.483765,-4.211426,0.366211,7.93457
30859,-0.482666,-0.698242,0.494141,-2.075195,-8.850098,8.422852
30877,-0.494751,-0.679321,0.52124,-0.732422,-13.305663,8.056641
30894,-0.510864,-0.643799,0.556519,3.601074,-20.996092,4.394531
30911,-0.512573,-0.634766,0.575684,8.850098,-20.629881,-10.498046
30928,-0.534668,-0.63562,0.620361,0.915527,-18.249512,-19.348145
30945,-0.588867,-0.607666,0.706665,-21.362303,-16.052246,-26.916502
30962,-0.610718,-0.576904,0.752808,-25.268553,-11.96289,-21.850584
30978,-0.615845,-0.480225,0.805786,-19.470215,1.037598,-15.502929
