timestamp,ax,ay,az,gx,gy,gz,label
81,-0.05382096618898702,0.3268384225564863,0.5640182498867703,-0.015657431163748573,0.029134346497586304,0.12406232361907969,junk
93,-0.06157066266885207,0.3173222009439987,0.5800804941055985,-0.003233193662672286,0.015884724775426698,0.12785428054244793,junk
104,-0.08133699215825803,0.2962224873544875,0.6002724926308942,0.015403157499973945,0.0005967048494274138,0.1468141272868704,junk
115,-0.1003254946761085,0.2742992545869725,0.6032556151089844,0.00981225418676736,0.015884724775426698,0.14302217036350218,junk
126,-0.10575123465320367,0.2610585573505093,0.5952254328617246,0.0004940786054442416,0.03423035870578634,0.14112619190181805,junk
138,-0.10303995206663887,0.2552668113619974,0.5954547592274002,-0.010066527850541985,0.049518378631785626,0.1468141272868704,junk
149,-0.08404827474482283,0.2614754003912272,0.608992533699489,-0.024354396396708333,0.05869120394626587,0.15819002912076577,junk
160,-0.07319679479063242,0.29084419543888285,0.6124343089089302,-0.0398846958175378,0.060729602150105554,0.17146190941634523,junk
171,-0.06854888178509273,0.33055950921265126,0.6110583507148774,-0.04858166105049756,0.05665280574242619,0.17714984480139762,junk
182,-0.06622175047835739,0.3595182391552104,0.6053214321243725,-0.04236954738892762,0.04849917952986579,0.17525386633971352,junk
194,-0.06351046789179249,0.36324271477918607,0.5998138398995432,-0.0262180376197348,0.04136476911782607,0.17146190941634523,junk
205,-0.06351046789179249,0.3504188605834408,0.5963720646901021,-0.0044756143593989925,0.03524955780770619,0.14112619190181805,junk
216,-0.06971086003647767,0.3268384225564863,0.5915543312866081,-0.0057180452340621045,0.03423035870578634,0.12027036669571144,junk
227,-0.07668590434875279,0.30036041705137045,0.5851294335990768,-0.008824096975878874,0.028115147395666465,0.10889446486181609,junk
238,-0.07901303565548813,0.2904307413659757,0.5816876583896358,-0.010687738198905339,0.017923139677867215,0.1107904433235002,junk
250,-0.08172431824205303,0.3032579845295317,0.5904058197339217,-0.011930158895632046,0.00875031436338698,0.11647837870855257,junk
261,-0.09528708078280827,0.2904307413659757,0.5970600437871286,-0.013172589770295158,0.0046735179557076114,0.12785428054244793,junk
272,-0.10458925640181872,0.2767799790244159,0.5982085553398148,-0.015657431163748573,0.0067119161595473,0.14112619190181805,junk
283,-0.10807836595993905,0.282985179085835,0.5963720646901021,-0.02186955500325492,0.00773111526146714,0.15060608421023866,junk
294,-0.11156430071409384,0.29912005483264875,0.5959134119587512,-0.030566520236214683,0.002635119751867931,0.14871010574855453,junk
306,-0.11234212768564932,0.3053252548940678,0.5954547592274002,-0.04050590616590115,-0.02080652638669175,0.13354224699129094,junk
317,-0.11078964854650392,0.3086362764451363,0.5979792289741394,-0.03864227512081109,-0.03303694900693151,0.12975029006792269,junk
328,-0.11466608418841921,0.309876638663858,0.6030262887433088,-0.036157423549421266,-0.038132944516530716,0.12975029006792269,junk
339,-0.12590489022640458,0.30615216303988224,0.6050921057586971,-0.033672582155967856,-0.038132944516530716,0.13354224699129094,junk
350,-0.14838250230237532,0.3131842712471158,0.6083045546024627,-0.03243015128130474,-0.03609456301129187,0.1392301823763433,junk
362,-0.15768467792138582,0.319802925381442,0.6170245956710577,-0.02932408936155157,-0.03405614810885135,0.14871010574855453,junk
373,-0.17163476654593607,0.3243543091512322,0.6289552058591094,-0.025596827271371445,-0.027940936798731476,0.16577394296750225,junk
384,-0.1867500082258367,0.3210466765679744,0.6319383283371995,-0.023733186048344984,-0.010614518668892504,0.1809418327885565,junk
395,-0.19295040037052189,0.31153045495548687,0.6255134306496682,-0.023111975699981625,0.009769513465306821,0.1790458543268724,junk
406,-0.18985179170016206,0.30367143860243895,0.6229889609029291,-0.018763493083501746,0.028115147395666465,0.1525020626719228,junk
418,-0.18520070389065682,0.30615216303988224,0.6275792476650564,-0.018142282735138394,0.029134346497586304,0.1468141272868704,junk
429,-0.1867500082258367,0.32187358471378885,0.6323969810685504,-0.014415010467021866,0.028115147395666465,0.14871010574855453,junk
440,-0.18829931256101662,0.3392488226793244,0.6351507771809651,-0.006339255582425458,0.027095948293746622,0.1543980411336069,junk
451,-0.1894644656163671,0.34752129310527957,0.6436414918838845,0.0029789199988976577,0.03219196050194666,0.1600860075824499,junk
462,-0.19140109603534197,0.34669438495946503,0.6429535127868581,0.007948623141677295,0.04849917952986579,0.16387796450581815,junk
474,-0.19023911778395702,0.3471078390323723,0.6353801035466405,0.007948623141677295,0.07296002477034531,0.16198198604413402,junk
485,-0.18442605172306686,0.348348201251094,0.6234494933585888,0.007327412793313941,0.09232485780262481,0.1543980411336069,junk
496,-0.1778351586906212,0.34752129310527957,0.6140414731929675,0.007327412793313941,0.10047846731658436,0.14112619190181805,junk
507,-0.17396189785267144,0.3413160930438605,0.6115170034462282,0.003600140525197416,0.08926724379826444,0.12406232361907969,junk
518,-0.1727999196012865,0.33966227675223154,0.6128929616402812,0.0004940786054442416,0.08315204918674539,0.12027036669571144,junk
530,-0.17202209262973103,0.3388353686064171,0.6131222880059566,0.0004940786054442416,0.08213283338622472,0.12027036669571144,junk
541,-0.1689234839593712,0.3280787847752079,0.6112876770805528,0.0017364993021709509,0.08519044739058508,0.12216634515739558,junk
552,-0.1669836787364308,0.30118732519718483,0.606009411221399,0.0004940786054442416,0.0902864429001843,0.1259583020807638,junk
563,-0.16272309181468605,0.2982931466868343,0.6034849414746598,-0.0038544040110356395,0.09334405690454464,0.12975029006792269,junk
574,-0.15768467792138582,0.30367143860243895,0.6027969623776334,-0.006960465930788812,0.09334405690454464,0.1316462685296068,junk
586,-0.1557448726984454,0.30946318459095074,0.6066973903184255,-0.00820288662751552,0.08824804469634459,0.13354224699129094,junk
597,-0.15535754661465043,0.30946318459095074,0.6103703716178508,-0.00820288662751552,0.08213283338622472,0.13733420391465917,junk
608,-0.15264626402808562,0.30615216303988224,0.6117463298119038,-0.0044756143593989925,0.0770368378766255,0.14491814882518628,junk
619,-0.1503191327213502,0.3016007792700921,0.6115170034462282,-0.0013695626175822232,0.07499842297418499,0.15060608421023866,junk
630,-0.1522589379442906,0.2982931466868343,0.6103703716178508,-0.00012713174291911178,0.07397922387226516,0.15629405065908167,junk
642,-0.15264626402808562,0.2949821251357658,0.6087632073338136,-0.0013695626175822232,0.07499842297418499,0.1600860075824499,junk
653,-0.15535754661465043,0.26933441674427516,0.6096805127965157,-0.0057180452340621045,0.07601762207610484,0.16577394296750225,junk
664,-0.15613219878224038,0.2627157626099489,0.6101391655278665,-0.012551369243995402,0.08009443518238503,0.1733578878780294,junk
675,-0.15380824227947051,0.2631292166828561,0.6057800848557235,-0.020005913780228455,0.08824804469634459,0.17714984480139762,junk
686,-0.14644587188340044,0.26933441674427516,0.6000431662652186,-0.024975606745071693,0.09844006911274468,0.1809418327885565,junk
697,-0.13559439192921005,0.2771934330973231,0.5963720646901021,-0.025596827271371445,0.10353608132094472,0.18283781125024062,junk
709,-0.12474291197501965,0.2846389953774638,0.5949961064960492,-0.020005913780228455,0.09945926821466453,0.1904217250969771,junk
720,-0.1131167798532393,0.2929148547712297,0.5959134119587512,-0.01503622081538522,0.08926724379826444,0.19421371308413599,junk
731,-0.10575123465320367,0.29787969261392705,0.5972912498771129,-0.008824096975878874,0.0790752360804652,0.19800567000750421,junk
742,-0.10226529989904892,0.29912005483264875,0.5991258608025168,-0.0038544040110356395,0.07397922387226516,0.19990164846918837,junk
753,-0.10458925640181872,0.2970527844681126,0.5982085553398148,-0.0013695626175822232,0.0790752360804652,0.20558961491803135,junk
765,-0.10458925640181872,0.2838120872316494,0.5943081273990228,-0.0019907729659455766,0.0902864429001843,0.20748559337971548,junk
776,-0.09877619034092855,0.27347234644115814,0.5922423103836345,-0.0057180452340621045,0.1014976664185042,0.2112775503030837,junk
787,-0.09218847211244845,0.2755396168056942,0.5947667801303738,-0.011930158895632046,0.10557447952478441,0.21317352876476783,junk
798,-0.08404827474482283,0.28422554130455663,0.5984378817054904,-0.020005913780228455,0.10455528042286456,0.2169655167519267,junk
809,-0.07087283828786262,0.30036041705137045,0.5998138398995432,-0.03677863389778462,0.09844006911274468,0.21506950722645196,junk
821,-0.057697401830902315,0.3255946713699539,0.5986672080711658,-0.03739985442408438,0.09232485780262481,0.21506950722645196,junk
832,-0.053433640105192096,0.3413160930438605,0.5961427383244267,-0.030566520236214683,0.08620964649250491,0.21317352876476783,junk
843,-0.056919574859346844,0.3388353686064171,0.5945374537646982,-0.020005913780228455,0.08009443518238503,0.21317352876476783,junk
854,-0.06467244614317744,0.32352740100541777,0.5959134119587512,-0.011930158895632046,0.07601762207610484,0.22265345213697907,junk
865,-0.07242214262304249,0.32642496848357905,0.5954547592274002,-0.006960465930788812,0.0790752360804652,0.23402935397087443,junk
876,-0.07823520868393266,0.33179987143137296,0.5940788010333472,-0.0038544040110356395,0.08824804469634459,0.23971728935592682,junk
888,-0.07474927392977791,0.34048918489804597,0.5968307174214531,-0.00012713174291911178,0.09640165421030417,0.23592533243255856,junk
899,-0.06428512005938251,0.34504056866783617,0.6030262887433088,0.0017364993021709509,0.09844006911274468,0.22644540906034732,junk
910,-0.05653224877555192,0.3359378011282559,0.6069267166841009,-0.010066527850541985,0.09945926821466453,0.20558961491803135,junk
921,-0.05304631402139708,0.3272518766293935,0.604174800295995,-0.023111975699981625,0.10659367862670424,0.20179762693087247,junk
932,-0.050331856630866735,0.3355243470553486,0.5966013910557777,-0.03180894093294139,0.11576650394118447,0.19990164846918837,junk
944,-0.0456807688213615,0.36075860137393206,0.5883418824428425,-0.029945309887851327,0.12086249945078369,0.20179762693087247,junk
955,-0.03173068019681126,0.3744127526833026,0.5805391468369495,-0.018763493083501746,0.11576650394118447,0.20179762693087247,junk
966,-0.027854244554895963,0.3528995850208841,0.5803098204712741,-0.007581676279152166,0.10659367862670424,0.20179762693087247,junk
977,-0.026304940219716095,0.33511089298244146,0.5787045359115457,-0.003233193662672286,0.10047846731658436,0.19800567000750421,junk
988,-0.02979404977783638,0.3243543091512322,0.5761800661648065,-0.006339255582425458,0.09844006911274468,0.1961096915458201,junk
1000,-0.03366731061578614,0.32518121729704663,0.5750334343364291,-0.013172589770295158,0.09640165421030417,0.19990164846918837,junk
1011,-0.036769094090111504,0.3342839848366269,0.5768680452618329,-0.020627124128591807,0.09232485780262481,0.20938157184139958,junk
1022,-0.0406455297320268,0.34504056866783617,0.5823756374866622,-0.019384703431865102,0.09232485780262481,0.20938157184139958,junk
1033,-0.046458595792916973,0.3528995850208841,0.5869640445244808,-0.016899851860475282,0.09334405690454464,0.2036936053925566,junk
1044,-0.058859380082287256,0.3471078390323723,0.5828342902180133,-0.016278641512111926,0.09742087001082483,0.1961096915458201,junk
1056,-0.060021358333672205,0.3471078390323723,0.5816876583896358,-0.018763493083501746,0.10455528042286456,0.1961096915458201,junk
1067,-0.055757596607961896,0.34876165532400116,0.5832929429493641,-0.023733186048344984,0.11270888993682412,0.19800567000750421,junk
1078,-0.051106508798456664,0.34669438495946503,0.583751595680715,-0.02683924796809815,0.11882410124694402,0.19990164846918837,junk
1089,-0.046458595792916973,0.3433833634083966,0.5809996792926092,-0.02746045831646151,0.1229009143532242,0.19990164846918837,junk
1100,-0.03986770276047133,0.3471078390323723,0.5761800661648065,-0.02683924796809815,0.1229009143532242,0.19421371308413599,junk
1112,-0.030568701945426314,0.357037514717767,0.5665427196335097,-0.017521072386775038,0.12595851165898372,0.1809418327885565,junk
1123,-0.014678808097935744,0.3657234392166294,0.5518583133330431,-0.011308948547268693,0.13309292207102344,0.17525386633971352,junk
1134,0.005087521391470209,0.3739992986103953,0.540155149786358,-0.006960465930788812,0.136150519376783,0.16766995249297703,junk
1145,0.031051068221595726,0.38475249347379387,0.5408431288833846,-0.006339255582425458,0.13003532476526392,0.1543980411336069,junk
1156,0.046940962069086385,0.39054423946230565,0.5461213947425383,-0.00820288662751552,0.11984330034886384,0.13733420391465917,junk
1168,0.06360550808416697,0.3959225313779103,0.5491045172206285,-0.011930158895632046,0.11168969083490429,0.12027036669571144,junk
1179,0.07678411934509273,0.3901307853893985,0.549792496317655,-0.017521072386775038,0.10761287772862407,0.10510250793844785,junk
1190,0.08802292538307815,0.3731690014967702,0.5518583133330431,-0.025596827271371445,0.10863207683054392,0.08803863965570947,junk
1201,0.09809975316967855,0.3549668553854202,0.5562173940051861,-0.03677863389778462,0.11067049173298445,0.06907879291128699,junk
1213,0.10313816706297879,0.3429699093354894,0.5624129653270421,-0.053551354015340794,0.09436325600646447,0.0406390538584439,junk
1224,0.0992617314210635,0.3334570766908125,0.5720503118583389,-0.05044530227352403,0.07397922387226516,0.025471195101180306,junk
1235,0.0891849036344631,0.3214601306408817,0.584670780867726,-0.04733924035377085,0.052575992636145985,0.015991271728969053,junk
1246,0.06864392197746721,0.3169087468710915,0.6039454739303196,-0.04733924035377085,0.040345570015906225,0.0178872812544438,junk
1258,0.06360550808416697,0.319802925381442,0.6057800848557235,-0.04050590616590115,0.039326370913986386,0.03305514001170742,junk
1269,0.06477066113951746,0.31029009273676517,0.6083045546024627,-0.022490765351618272,0.04544158222410627,0.05011897723065516,junk
1280,0.07058372720040763,0.291674492552508,0.6126636352746057,-0.0038544040110356395,0.049518378631785626,0.0652868670517094,junk
1291,0.08182253323839297,0.2747127086598798,0.6156467577526957,0.00608498191865083,0.049518378631785626,0.07476675936013001,junk
1303,0.09383599144396833,0.2610585573505093,0.6165640632153978,-0.007581676279152166,0.04136476911782607,0.08424668273234123,junk
1314,0.10158568792383339,0.25485335728909025,0.6124343089089302,-0.0262180376197348,0.03830717181206654,0.0899346181173936,junk
1325,0.10546212356574869,0.26726375741192837,0.6055507584900481,-0.04174832686262786,0.0372879727101467,0.10699848640013196,junk
1336,0.10623677573333862,0.2896038332201612,0.6032556151089844,-0.04733924035377085,0.03524955780770619,0.12406232361907969,junk
1348,0.10778608006851849,0.30946318459095074,0.6133516143716322,-0.04485438878238104,0.03117276140002682,0.13733420391465917,junk
1359,0.10430014531436374,0.3040848926753461,0.622071655440227,-0.03802106477244774,0.02505755008990694,0.1468141272868704,junk
1370,0.09344866536017332,0.29208794662541526,0.6303330437774711,-0.03180894093294139,0.0199615378817069,0.15819002912076577,junk
1381,0.07949540193165763,0.2767799790244159,0.6385925523904062,-0.02746045831646151,0.014865525673506859,0.17714984480139762,junk
1393,0.06360550808416697,0.26726375741192837,0.644329470980911,-0.028702879013188215,0.017923139677867215,0.20179762693087247,junk
1404,0.0488807672920268,0.27305550340044016,0.6470832670933256,-0.04299075773729097,0.04747998042794595,0.24730123426645392,junk
1415,0.04229304906354669,0.29208794662541526,0.6486885516530542,-0.046718030005407495,0.06174880125202539,0.2605731145620334,junk
1426,0.041127896008196205,0.3156683846523698,0.6493765307500804,-0.043611968085654325,0.07397922387226516,0.2700530379342446,junk
1437,0.03299087344453614,0.348348201251094,0.6482298989217029,-0.036157423549421266,0.08315204918674539,0.27574097331929703,junk
1449,0.019037610016020452,0.34504056866783617,0.6434121655182091,-0.028081668664824862,0.09232485780262481,0.27763695178098113,junk
1460,0.007024151810445089,0.3388353686064171,0.6353801035466405,-0.023111975699981625,0.10455528042286456,0.27763695178098113,junk
1471,-0.0003382185856249556,0.3425564552625821,0.6271205949337053,-0.022490765351618272,0.11780490214502418,0.2795329613064559,junk
1482,-0.0046019803113352626,0.35372649316669863,0.622071655440227,-0.024975606745071693,0.12799690986282342,0.28142893976814,junk
1494,-0.006151284646515131,0.37068827705932683,0.6193178593278126,-0.028081668664824862,0.1432849297888227,0.28522089669150824,junk
1505,-0.005763958562720208,0.3884769690977695,0.6158760841183714,-0.02746045831646151,0.15245775510330292,0.28332491822982414,junk
1516,-0.003827328143745328,0.3992335529289788,0.6110583507148774,-0.024975606745071693,0.1606113646172625,0.27574097331929703,junk
1527,0.002760390084734782,0.4070925692820267,0.6050921057586971,-0.02186955500325492,0.16366896192302202,0.26246909302371757,junk
1538,0.01865028393222544,0.4145415205299781,0.5888005351741935,-0.019384703431865102,0.15959216551534264,0.24919721272813805,junk
1550,0.027565133467440977,0.4112304989789096,0.5800804941055985,-0.021248344654891567,0.1494001410989426,0.23782131089424266,junk
1561,0.03492750386351102,0.4128843152705386,0.5720503118583389,-0.025596827271371445,0.14022733248306316,0.23213337550919033,junk
1572,0.04190254817578614,0.4261216235391911,0.5635595971554195,-0.031187730584578036,0.13309292207102344,0.22644540906034732,junk
1583,0.048493441208231784,0.4459809749099806,0.5559880676395108,-0.03243015128130474,0.12697771076090356,0.22075747367529494,junk
1594,0.05197937596238662,0.4567375587411898,0.5504804754146815,-0.018142282735138394,0.10659367862670424,0.1961096915458201,junk
1606,0.05314135421377157,0.45053235867977076,0.5479560056679423,-0.012551369243995402,0.09232485780262481,0.17714984480139762,junk
1617,0.05197937596238662,0.4352243910787714,0.5504804754146815,-0.01503622081538522,0.07397922387226516,0.16198198604413402,junk
1628,0.047715614236676314,0.4215736287372116,0.5612644537743557,-0.02746045831646151,0.05665280574242619,0.15060608421023866,junk
1639,0.038803939505426314,0.43108646138188844,0.5920129840179591,-0.046096819657044145,0.044422383122186423,0.1468141272868704,junk
1650,0.029889089970210867,0.4472213371287023,0.6037142678403353,-0.061627119077873604,0.0372879727101467,0.14491814882518628,junk
1662,0.019812262183610384,0.4600451913244476,0.6115170034462282,-0.06597560169435349,0.03219196050194666,0.14491814882518628,junk
1673,0.017875631764635504,0.46045864539735487,0.6172539220367331,-0.059142267506483784,0.028115147395666465,0.14112619190181805,junk
1684,0.01826295784843043,0.44680788305579505,0.6234494933585888,-0.04920287139886092,0.02505755008990694,0.13733420391465917,junk
1695,0.011675239619950319,0.4261216235391911,0.6328556337999014,-0.0479604507021342,0.03117276140002682,0.1392301823763433,junk
1707,-0.0003382185856249556,0.4070925692820267,0.6461659616306237,-0.05541499523836726,0.044422383122186423,0.14871010574855453,junk
1718,-0.012351676791200318,0.40088736922060764,0.6555721020719365,-0.062248329426236954,0.06276800035394524,0.15629405065908167,junk
1729,-0.018164742852090493,0.4046118448445834,0.6562619608932717,-0.06535439134599012,0.08111363428430488,0.16198198604413402,junk
1740,-0.014291482014140733,0.41081704490600246,0.6406583694057943,-0.06473317081969038,0.09538245510838432,0.16387796450581815,junk
1752,-0.006151284646515131,0.4174356990403287,0.6255134306496682,-0.060384688203210496,0.10353608132094472,0.16577394296750225,junk
1763,0.008186130061830034,0.4244678072475622,0.6096805127965157,-0.053551354015340794,0.10863207683054392,0.17146190941634523,junk
1774,0.020199588267405397,0.4298460991631668,0.5972912498771129,-0.046096819657044145,0.10761287772862407,0.17714984480139762,junk
1785,0.024463349993115616,0.43646475329749307,0.5917836576522837,-0.03802106477244774,0.09538245510838432,0.1809418327885565,junk
1796,0.02136474132275579,0.42529471539337665,0.5922423103836345,-0.04112711651426451,0.05869120394626587,0.16956593095466113,junk
1808,0.01632632742945555,0.4033714826258617,0.59247163674931,-0.05789984680975708,0.052575992636145985,0.1543980411336069,junk
1819,0.01399919612272021,0.39757973663734986,0.589947167002571,-0.07653619797240331,0.053595191738065824,0.14871010574855453,junk
1830,0.005087521391470209,0.4174356990403287,0.5819169847553112,-0.08647558390208979,0.053595191738065824,0.1543980411336069,junk
1841,0.0035350422523248042,0.424054353174655,0.5809996792926092,-0.0877180147767529,0.052575992636145985,0.16577394296750225,junk
1853,0.008573456145624957,0.43357057478714256,0.5809996792926092,-0.0821271012856099,0.049518378631785626,0.1733578878780294,junk
1864,0.017875631764635504,0.4488751534203312,0.5805391468369495,-0.07280892570428678,0.04544158222410627,0.17714984480139762,junk
1875,0.027565133467440977,0.4617023965838873,0.5798511677399231,-0.05789984680975708,0.039326370913986386,0.18283781125024062,junk
1886,0.03260354736074122,0.4612855535431693,0.5775560243588593,-0.024975606745071693,0.0240383509879871,0.19800567000750421,junk
1898,0.029889089970210867,0.4554938075546575,0.5748041079707534,-0.013793800118658514,0.018942338779787057,0.20558961491803135,junk
1909,0.02136474132275579,0.4455675208370734,0.5761800661648065,-0.010066527850541985,0.017923139677867215,0.2112775503030837,junk
1920,0.008573456145624957,0.4261216235391911,0.5807684732026249,-0.018142282735138394,0.02505755008990694,0.21506950722645196,junk
1931,4.910749816996754e-05,0.41371122341635297,0.5814583320239601,-0.03429379250433121,0.040345570015906225,0.2112775503030837,junk
1943,0.009738609200975438,0.44101613706728326,0.5814583320239601,-0.04982409192516067,0.052575992636145985,0.20938157184139958,junk
1954,0.020590089155165855,0.47080177515565685,0.5844414545020503,-0.05603620558673061,0.053595191738065824,0.20938157184139958,junk
1965,0.02136474132275579,0.4848659915701238,0.5929302894806611,-0.04982409192516067,0.04136476911782607,0.20748559337971548,junk
1976,0.006636825726650078,0.4803179967681444,0.6037142678403353,-0.036157423549421266,0.02199993608554658,0.2036936053925566,junk
1987,-0.0197172219912359,0.4612855535431693,0.6096805127965157,-0.013172589770295158,0.00773111526146714,0.1961096915458201,junk
1999,-0.049169878379481786,0.43646475329749307,0.6071579227740852,-0.00944531750217863,0.017923139677867215,0.2036936053925566,junk
2010,-0.07319679479063242,0.4186760612590504,0.6005036987208785,-0.010687738198905339,0.03117276140002682,0.2169655167519267,junk
2021,-0.08249897040964298,0.4141246774892602,0.5977499026084637,-0.01503622081538522,0.04136476911782607,0.2302373970475062,junk
2032,-0.058859380082287256,0.4414295911401904,0.5975205762427883,-0.020005913780228455,0.04544158222410627,0.24161329888140157,junk
2044,-0.04994453054707172,0.46376966694842336,0.5954547592274002,-0.023111975699981625,0.04544158222410627,0.2510931911898222,junk
2055,-0.05459561835657704,0.4745262507796325,0.5949961064960492,-0.024975606745071693,0.039326370913986386,0.254885179176981,junk
2066,-0.0638977939755875,0.48238526713268054,0.5954547592274002,-0.02683924796809815,0.030153562298106982,0.25678115763866516,junk
2077,-0.06738372872974224,0.49810668880658715,0.5954547592274002,-0.029945309887851327,0.0199615378817069,0.2605731145620334,junk
2088,-0.06699640264594732,0.5187895593553804,0.5963720646901021,-0.028081668664824862,0.0036543188537877715,0.28142893976814,junk
2100,-0.06583442439456239,0.5353378891751014,0.5993551871681921,-0.02186955500325492,-0.006537705562612305,0.29090886314035125,junk
2111,-0.06622175047835739,0.5469213811521251,0.6053214321243725,-0.016899851860475282,-0.015710514178491713,0.2965967985254036,junk
2122,-0.07707323043254771,0.5551938515780803,0.6216130027088761,-0.01503622081538522,-0.016729713280411552,0.30228473391045596,junk
2133,-0.08443560082861785,0.5489886515166612,0.6227596345372535,-0.014415010467021866,-0.0055185064606924645,0.30228473391045596,junk
2145,-0.08676273213535328,0.5423699973823349,0.6179419011337595,-0.016899851860475282,0.013846326571587018,0.2965967985254036,junk
2156,-0.08211164432584796,0.5427834514552422,0.6115170034462282,-0.020627124128591807,0.03219196050194666,0.28522089669150824,junk
2167,-0.07397462176218798,0.551059310849008,0.6083045546024627,-0.024354396396708333,0.04544158222410627,0.27384499485761293,junk
2178,-0.06351046789179249,0.5647100731905678,0.6071579227740852,-0.023111975699981625,0.04747998042794595,0.254885179176981,junk
2189,-0.058859380082287256,0.5700883651061723,0.6066973903184255,-0.016899851860475282,0.040345570015906225,0.23971728935592682,junk
2201,-0.06505977222697244,0.5580914190562415,0.6048627793930215,-0.011308948547268693,0.0372879727101467,0.21886149521361084,junk
2212,-0.07668590434875279,0.532026867624033,0.6014210041835805,-0.013172589770295158,0.043403184020266584,0.19421371308413599,junk
2223,-0.0871500582191482,0.4873501049753779,0.5867347181588052,-0.022490765351618272,0.05767200484434602,0.17146190941634523,junk
2234,-0.08753738430294321,0.4919014887451681,0.5800804941055985,-0.0330513616296681,0.07397922387226516,0.1600860075824499,junk
2245,-0.08521342780017332,0.5005874132440304,0.5766387188961573,-0.03553621320105792,0.08722884559442476,0.16198198604413402,junk
2257,-0.08366094866102791,0.505965705159635,0.5743454552394025,-0.02932408936155157,0.09232485780262481,0.16766995249297703,junk
2268,-0.08017501390687308,0.5121709052210541,0.574574781605078,-0.016278641512111926,0.0902864429001843,0.16956593095466113,junk
2279,-0.07591125218116286,0.5175491971366587,0.5743454552394025,0.01726679872300041,0.06786401256214528,0.1600860075824499,junk
2290,-0.07009818612027269,0.5121709052210541,0.5729676173210407,0.02906982587571335,0.052575992636145985,0.15060608421023866,junk
2302,-0.06040868441746721,0.5051387970138206,0.5754920870677799,0.035281949715219696,0.036268756909626026,0.14871010574855453,junk
2313,-0.05227166185380715,0.5084464295970784,0.5839809220463906,0.03900921180539982,0.02199993608554658,0.15060608421023866,junk
2324,-0.04529344273756649,0.5382354566532627,0.601191677817905,0.04522133564490617,0.013846326571587018,0.1525020626719228,junk
2335,-0.036769094090111504,0.5444406567146818,0.6027969623776334,0.053297090529502565,0.013846326571587018,0.14871010574855453,junk
2347,-0.03018137586163139,0.5415430892365205,0.6000431662652186,0.059509204191072515,0.0199615378817069,0.13733420391465917,junk
2358,-0.023980983716946205,0.5299595972594968,0.5954547592274002,0.061994055762462336,0.03117276140002682,0.12216634515739558,junk
2369,-0.017002764600705548,0.5158953808450297,0.5922423103836345,0.06261526611082568,0.04544158222410627,0.10889446486181609,junk
2380,-0.008865742037045569,0.505965705159635,0.5936182685776875,0.06075163506573563,0.07397922387226516,0.09372657504076184,junk
2391,-0.001112870753214978,0.5018277754627521,0.5988965344368412,0.05640314227131934,0.08417124828866523,0.08235067320686648,junk
2403,0.008186130061830034,0.5038984347950989,0.6030262887433088,0.05081223895811275,0.0902864429001843,0.06718281444960286,junk
2414,0.01826295784843043,0.5047253429409133,0.6021089832806069,0.047084966689996226,0.09436325600646447,0.05011897723065516,junk
2425,0.027952459551235986,0.4770069752170759,0.5954547592274002,0.04584254599326952,0.09742087001082483,0.036847096935075666,junk
2436,0.035702156031101044,0.4559106505953754,0.5920129840179591,0.04584254599326952,0.10557447952478441,0.031159161550023292,junk
2448,0.05043007162720667,0.434397482932957,0.5888005351741935,0.04832738738672293,0.12493931255706389,0.03874307539675977,junk
2459,0.07097105328420256,0.4145415205299781,0.5876539033458161,0.0501910286097494,0.1494001410989426,0.04822299876897102,junk
2470,0.08995955580205303,0.3967494395237247,0.59247163674931,0.04894860791302269,0.16672657592738238,0.04822299876897102,junk
2481,0.09732192619812308,0.3843390394008866,0.5977499026084637,0.04025163250212652,0.16366896192302202,0.02926318308833919,junk
2492,0.09499796969535328,0.375239660829117,0.6009623514522295,0.04149406337678963,0.1473617428951029,0.023575216639496174,junk
2504,0.08957222971825803,0.3628292607062789,0.6032556151089844,0.04460012529654281,0.12799690986282342,0.02926318308833919,junk
2515,0.07097105328420256,0.32270049285960334,0.6087632073338136,0.04770617703835958,0.11067049173298445,0.036847096935075666,junk
2526,0.06011957333001214,0.3040848926753461,0.6119756561775792,0.05081223895811275,0.09436325600646447,0.04443104184560279,junk
2537,0.04577898381770144,0.2929148547712297,0.6154174313870203,0.057024362797619105,0.08009443518238503,0.05770292214118228,junk
2549,0.03182889519315128,0.2862962006369035,0.614729452289994,0.06323647645918905,0.07194082566842548,0.07097480243676174,junk
2560,0.027952459551235986,0.2771934330973231,0.6131222880059566,0.0651001176822155,0.07092162656650564,0.08424668273234123,junk
2571,0.03144156910935627,0.26519648704739224,0.6140414731929675,0.04522133564490617,0.08926724379826444,0.1107904433235002,junk
2582,0.04151522209199122,0.270988233035904,0.6172539220367331,0.023478912384570356,0.10251686552042405,0.1259583020807638,junk
2593,0.052366702046181546,0.31359772532002295,0.6188592065964615,0.009191043838404002,0.1147472881406638,0.13354224699129094,junk
2605,0.056630463771891855,0.36820755262188354,0.6117463298119038,0.01726679872300041,0.11984330034886384,0.1392301823763433,junk
2616,0.056630463771891855,0.37606656897493146,0.5888005351741935,0.0433576944218797,0.11270888993682412,0.14112619190181805,junk
2627,0.054306507269121965,0.3243543091512322,0.5878832297114914,0.0694486002986954,0.10353608132094472,0.14491814882518628,junk
2638,0.05314135421377157,0.26933441674427516,0.589947167002571,0.07876678605795491,0.10251686552042405,0.14871010574855453,junk
2649,0.052366702046181546,0.2465808868631351,0.5972912498771129,0.0694486002986954,0.10863207683054392,0.15819002912076577,junk
2661,0.05197937596238662,0.26230230853704173,0.6085338809681382,0.04956981826138604,0.11984330034886384,0.1790458543268724,junk
2672,0.05197937596238662,0.2941552169899514,0.6206956972461742,0.02161528133948029,0.12697771076090356,0.22644540906034732,junk
2683,0.043067701231136624,0.3326301685449981,0.627808574030732,0.023478912384570356,0.12697771076090356,0.23402935397087443,junk
2694,0.03027641605400579,0.3512457687292552,0.6206956972461742,0.03652436023401,0.1381889342792235,0.2302373970475062,junk
2706,0.027565133467440977,0.32518121729704663,0.6158760841183714,0.05081223895811275,0.1626497628211022,0.24161329888140157,junk
2717,0.038803939505426314,0.2999469629784632,0.6271205949337053,0.057645573145982454,0.201379445584262,0.2719490163959288,junk
2728,0.0450043316501115,0.34628093088655787,0.6248254515526418,0.06696375890524198,0.24010909495022012,0.30228473391045596,junk
2739,0.04229304906354669,0.37689347712074583,0.622071655440227,0.08435768937116149,0.26456992349209885,0.3231405591165626,junk
2751,0.04190254817578614,0.37896074748528197,0.6016503305492559,0.10237283018544437,0.28495397232489894,0.33262048248877385,junk
2762,0.05159204987859161,0.3640696229250006,0.5665427196335097,0.1253576639645705,0.31349161397305786,0.3288285255654056,junk
2773,0.06903124806126214,0.33179987143137296,0.5355667427485397,0.17753947571820186,0.372605328870417,0.3155566142060355,junk
2784,0.09615994794673814,0.3040848926753461,0.514914211767584,0.17816069624450162,0.38687411629729473,0.3098686788209831,junk
2796,0.13840388951211485,0.281331362794206,0.5050475388706117,0.15579706263580245,0.3848357180934551,0.31745262373151023,junk
2807,0.254281059450089,0.2962224873544875,0.5002298054671177,0.13405463937546663,0.3634325202545376,0.33830841787382615,junk
2818,0.2786953019450346,0.28919037914725404,0.4697106015891898,0.14213039426006305,0.32266443928753813,0.34778834124603747,junk
2829,0.27714599760985464,0.2523726328516469,0.43804664560719336,0.17381221362802174,0.25030110266801936,0.33262048248877385,junk
2841,0.25777016900820926,0.20438484865192333,0.4286386254415719,0.18561523060279828,0.15245775510330292,0.3041807123721401,junk
2852,0.22599038131322804,0.18576924846766618,0.4245088711351043,0.15828191420719226,0.0637872161544659,0.28332491822982414,junk
2863,0.1938232675344518,0.20893623242171352,0.42358968594809365,0.10920615419537767,-0.05036336713677049,0.2245494305986632,junk
2874,0.17173298154227604,0.2068655730893667,0.4421763999136609,0.11479706768652066,-0.08807385079801044,0.16577394296750225,junk
2886,0.16746921981656573,0.16839401050213082,0.480496459673173,0.11603948838324737,-0.10845788293220976,0.11837438823402732,junk
2897,0.17444426412884084,0.14564048062099072,0.5206511303580889,0.10423646123053444,-0.11253467933988912,0.08424668273234123,junk
2908,0.15313180510822058,0.2035579405061089,0.571591659126988,0.08684254094255132,-0.10845788293220976,0.05959890060286638,junk
2919,0.1337528017026096,0.19859310266341154,0.5862760654274541,0.07317587256681192,-0.10030425671964936,0.03495111847339153,junk
2931,0.12483795216739409,0.175012664636457,0.6048627793930215,0.053297090529502565,-0.08807385079801044,0.012199314805600815,junk
2942,0.13452745387019957,0.17666648092808587,0.6193178593278126,0.014781947151610592,-0.06667060286329045,-0.00676050087503102,junk
2953,0.14615358599197992,0.21307077315078574,0.6133516143716322,-0.025596827271371445,-0.038132944516530716,-0.02192839069608529,junk
2964,0.14692823815956985,0.2556836544027154,0.5966013910557777,-0.02746045831646151,0.0036543188537877715,-0.031408314068296514,junk
2976,0.1372419112607299,0.26726375741192837,0.5977499026084637,-0.0019907729659455766,0.018942338779787057,-0.027616357144928303,junk
2987,0.11786290785511896,0.25651056254852983,0.6236788197242644,0.019130429768090474,0.051556793534226146,-0.03520027099166478,junk
2998,0.13026369214448927,0.23334357859448257,0.6700290617310359,0.0296910362240767,0.10353608132094472,-0.05984805312113963,junk
3009,0.14692823815956985,0.24161604902043773,0.6519010004968196,0.03155467744710317,0.15551535240906247,-0.10345565093124631,junk
3021,0.16049417550429063,0.23375703266738973,0.619547185693488,0.025342553607596817,0.18303381165390234,-0.17550301885798672,junk
3032,0.1709583293746861,0.22548117327362385,0.6005036987208785,0.001115288953807595,0.17895699854762212,-0.2513423437080954,junk
3043,0.16359595897861598,0.24947506537348563,0.5871933708901562,-0.03864227512081109,0.16163056371918236,-0.2911580156586245,junk
3054,0.14421695557300504,0.29912005483264875,0.5752627607021045,-0.08647558390208979,0.16672657592738238,-0.2570303101569384,junk
3066,0.1294890399768993,0.3140111793929302,0.5807684732026249,-0.08150589093724654,0.18711062476018256,-0.21911061666809342,junk
3077,0.13297814953501969,0.2656099411202995,0.6034849414746598,-0.07156650500756007,0.21360986820450176,-0.1830869327047232,junk
3088,0.1500300216338952,0.2101765946404352,0.6301037174117955,-0.06659680186478044,0.2421474931540598,-0.1546471936518801,junk
3099,0.1918866371154769,0.1741857564906425,0.6418050012341718,-0.0672180223910802,0.26049312708441946,-0.14895925826682774,junk
3111,0.2143642491914477,0.20645211901645943,0.6110583507148774,-0.06783923273944355,0.2553971148762194,-0.16223113856240723,junk
3122,0.2352925569322385,0.24534052464441342,0.5688378630145732,-0.061627119077873604,0.22685947322806052,-0.19446283453861857,junk
3133,0.2445915577472835,0.2742992545869725,0.5523169660643942,-0.046718030005407495,0.18303381165390234,-0.23238252802746354,junk
3144,0.2608687776785691,0.28795001692853234,0.5647081087081056,-0.019384703431865102,0.14532334469126323,-0.2570303101569384,junk
3156,0.3027253931601508,0.2643695789015778,0.5722796382240143,0.053297090529502565,0.13920813338114332,-0.24755038678472716,junk
3167,0.35426833554057247,0.2101765946404352,0.5564467203708617,0.08125162745140833,0.136150519376783,-0.2172146382064093,junk
3178,0.3934104936316237,0.1580508807438288,0.5238635792018544,0.08125162745140833,0.10557447952478441,-0.18119095424303908,junk
3190,0.39418514579921377,0.08648265851715066,0.5201924776267378,0.04460012529654281,0.05869120394626587,-0.14516727027966886,junk
3201,0.3794604050070737,0.117508658824246,0.540155149786358,-0.006339255582425458,0.030153562298106982,-0.08828782323777336,junk
3212,0.3682215989690881,0.13571080493559579,0.536254721845566,-0.036157423549421266,0.02199993608554658,0.010303336343916681,junk
3223,0.35233170512159756,0.09930651271289602,0.5204218039924134,-0.03491500285269456,0.0005967048494274138,0.13543822545297504,junk
3235,0.3333400277997816,0.06786705833289342,0.5034422543108833,-0.02746045831646151,-0.04832496893293079,0.2510931911898222,junk
3246,0.31473885136572616,0.07200159906196564,0.49128043803284727,-0.06535439134599012,-0.13597630877984798,0.36106022154161693,junk
3257,0.2883848036478401,0.08896338295459402,0.49128043803284727,-0.10449073489430906,-0.16043715402032752,0.34968431970772157,junk
3268,0.25583036378526886,0.11213036690864138,0.4986226411830804,-0.14300586809426463,-0.1828595843583665,0.2965967985254036,junk
3280,0.23645453518362344,0.14853465913134115,0.5188146397083762,-0.17158161536453373,-0.1950900069786063,0.22075747367529494,junk
3291,0.24071829690933375,0.2714016871088113,0.5589711901176009,-0.18089981130172966,-0.18795559656656657,0.16387796450581815,junk
3302,0.23567988301603351,0.3202163794543493,0.5681498839175467,-0.1697179843194437,-0.17368677574248712,0.13354224699129094,junk
3314,0.20777653096296758,0.3127708171742085,0.5890298615398689,-0.1448695093172911,-0.17062916173812676,0.12216634515739558,junk
3325,0.15506843552719546,0.2569240166214371,0.6126636352746057,-0.12374829640531865,-0.1767443730482466,0.11458240024686844,junk
3336,0.11127518962663886,0.22465426512780942,0.6204663708804986,-0.16164222943484727,-0.1950900069786063,0.07855871628349824,junk
3348,0.09654727403053315,0.2399622327288088,0.622071655440227,-0.20823313787527203,-0.21241644180704608,0.06149487906455051,junk
3359,0.0926740131925834,0.27347234644115814,0.627808574030732,-0.24239976810287492,-0.23076207573740573,0.053910965217814036,junk
3370,0.08724827321548823,0.2999469629784632,0.6239081460899398,-0.25979370874673086,-0.25012690876968524,0.04822299876897102,junk
3382,0.0868609471316932,0.3284922388481151,0.5945374537646982,-0.2697330946764174,-0.2827413635241243,0.02926318308833919,junk
3393,0.07019640111661261,0.33511089298244146,0.591095678555257,-0.27221794624780715,-0.34185504502428177,-0.012448467323874035,junk
3404,0.037641961254041456,0.35207267687506966,0.6046334530273461,-0.26165733979182093,-0.42135277535723936,-0.061744031582823704,junk
3416,0.003147716168529793,0.3342839848366269,0.6356094299123161,-0.2405361370577849,-0.49473532777727885,-0.09018377063566682,junk
3427,-0.027854244554895963,0.27636652495150865,0.6546547966092344,-0.1740664669359236,-0.5314265956379981,0.027367173562864413,junk
3438,-0.058472053998492333,0.22755183260597067,0.6431828391525335,-0.14362707844262798,-0.5202153721196782,0.16577394296750225,junk
3450,-0.09335045036383338,0.19528208111234302,0.6314796756058485,-0.13120284094155168,-0.526330583429798,0.27763695178098113,junk
3461,-0.1801622899973566,0.19528208111234302,0.6778299176126203,-0.1256119376283451,-0.5456954164620775,0.3041807123721401,junk
3472,-0.1801622899973566,0.22879219482469237,0.6925162036373952,-0.12250587570859195,-0.5497722128697569,0.25298916965150625,junk
3484,-0.18209892041633147,0.2846389953774638,0.6968752843095383,-0.12188466536022859,-0.5232729694254377,0.17525386633971352,junk
3495,-0.19682683601243717,0.358691331009396,0.700546385884655,-0.10883922768872535,-0.4672168518338381,0.11458240024686844,junk
3506,-0.19837614034761708,0.41081704490600246,0.7049073462811071,-0.07280892570428678,-0.3887383206028003,0.07855871628349824,junk
3518,-0.1871373343096317,0.41329776934344575,0.7012343649816816,0.06137284541409898,-0.23687728704752561,0.023575216639496174,junk
3529,-0.16078328659174565,0.39096108250302364,0.6826495307404232,0.12225161222275371,-0.1828595843583665,-0.0010725654899786767,junk
3540,-0.12164112850069429,0.3628292607062789,0.6599330624683881,0.14772129757326966,-0.1451491173957274,-0.008656510400505796,junk
3551,-0.0910264938610635,0.31111700088257965,0.6401997166744433,0.13156978780407683,-0.11355389514040981,-0.02192839069608529,junk
3563,-0.03715642017390651,0.25651056254852983,0.5947667801303738,0.08000920675468161,-0.08501623679365009,-0.044680194363876005,junk
3574,-0.02475563588453614,0.30077387112427767,0.5754920870677799,0.008569833490040648,-0.05851699334933089,-0.054160117736087234,junk
3585,-0.01080237245602045,0.34876165532400116,0.5518583133330431,-0.061627119077873604,-0.030998550803091825,-0.04278421590219187,junk
3597,0.004312869223880274,0.36241580663337164,0.527534680776971,-0.11567255169865864,-0.0055185064606924645,-0.01624042424724227,junk
3608,0.011287913536155396,0.37689347712074583,0.5073426822516754,-0.1473543507107445,0.015884724775426698,0.014095293267284948,junk
3619,0.02330137174173067,0.4145415205299781,0.48852664192043255,-0.15791495716673074,0.049518378631785626,0.036847096935075666,junk
3630,0.04190254817578614,0.4521861749713997,0.4763648256423965,-0.15108162297886105,0.043403184020266584,0.03874307539675977,junk
3642,0.048493441208231784,0.46956141293693515,0.47774266356075823,-0.14300586809426463,0.0240383509879871,0.04253506338391865,junk
3653,0.01865028393222544,0.4786607915087048,0.5078013349830265,-0.12188466536022859,-0.0014416933544122669,0.0406390538584439,junk
3664,-0.006151284646515131,0.4960360294742403,0.5277640071426466,-0.07839982901749337,-0.028960152599252147,0.027367173562864413,junk
3676,-0.025917614135921085,0.4947956672555186,0.5371720273082681,-0.023111975699981625,-0.06667060286329045,-0.002968543951662782,junk
3687,-0.036769094090111504,0.4534265371901214,0.5431382722644481,0.03155467744710317,-0.12476508526152805,-0.05605609619777136,junk
3698,-0.053433640105192096,0.3802044986718144,0.554151576989798,0.07503951378983838,-0.19814762098296662,-0.12999941152240524,junk
3709,-0.07513660001357284,0.30036041705137045,0.5631009444240684,0.04956981826138604,-0.29497175274716236,-0.27599015690136086,junk
3721,-0.09838886425713363,0.2527860869245541,0.5481853320336177,-0.03864227512081109,-0.30414457806164263,-0.3139098193264152,junk
3732,-0.12164112850069429,0.26933441674427516,0.511472436558143,-0.1473543507107445,-0.31943259798764195,-0.3328696660708377,junk
3744,-0.18520070389065682,0.40543875299039783,0.48531419307666696,-0.25358158490722454,-0.35408545094592064,-0.34993350328978545,junk
3755,-0.2320925584615732,0.5208602186877272,0.5055061916019628,-0.34924824318152753,-0.3968919301167599,-0.37837327340641913,junk
3766,-0.27472382611074486,0.6846795336898767,0.5369427009425924,-0.4026724756318856,-0.44173680749143873,-0.42387678755062863,junk
3778,-0.3212283545978663,0.8385759509422527,0.5754920870677799,-0.3734755078353167,-0.49269692957343914,-0.48075629672010556,junk
3789,-0.3700600143917231,0.904352427180419,0.6154174313870203,-0.05976347785484713,-0.5864634807304762,-0.4788603182584214,junk
3801,-0.4250920663302651,0.861326091855582,0.658784550915702,0.13778190146564678,-0.5813674685222762,-0.4030209934083127,junk
3812,-0.5033763825123677,0.7095037229033635,0.6938921618314481,0.2887363927015887,-0.5293881807355575,-0.3214937642369423,junk
3823,-0.5762381335213407,0.5038984347950989,0.6980219161379156,0.3514788210891427,-0.45600562831551816,-0.2740941473758861,junk
3835,-0.6490967097263483,0.25609710847562267,0.6585552245500266,0.31669094997936725,-0.3826231092926804,-0.27030219045251785,junk
3846,-0.6835877800078943,0.28919037914725404,0.6649801222375578,0.216054598740221,-0.3092405902698427,-0.2873660587352562,junk
3858,-0.7080051973068056,0.3930283528675597,0.6835668362031248,0.10920615419537767,-0.2297428766354859,-0.30063793903083574,junk
3869,-0.7099418277257804,0.4881770131211923,0.688384569606619,0.04025163250212652,-0.14820673140008775,-0.2968459821074675,junk
3880,-0.6952139121296746,0.5498189486302864,0.6716343462907642,0.03093346709873981,-0.038132944516530716,-0.23807046341251592,junk
3891,-0.6727363000537039,0.5862232408529863,0.6390512051217573,0.053297090529502565,-0.028960152599252147,-0.20015080098746157,junk
3903,-0.651807992312913,0.5907712356549656,0.5961427383244267,0.05888799384270916,-0.04526737162717128,-0.17550301885798672,junk
3914,-0.6487093836425533,0.5705018191790796,0.5672306987305361,0.04894860791302269,-0.07380501327533018,-0.17929497578135495,junk
3925,-0.6599481896805386,0.4314999154547957,0.5674600250962115,0.037766791108673106,-0.09724665941388984,-0.1906708776152503,junk
3936,-0.6642119514062489,0.3446271145949289,0.5578226785649146,0.032797098143829875,-0.0982658585158097,-0.18119095424303908,junk
3948,-0.6661485818252239,0.27926409242966993,0.535796069114215,0.030312246572440058,-0.08603543589556993,-0.14137531335630066,junk
3959,-0.6328194897950626,0.29126103847960083,0.5488751908549531,0.020372860642753586,-0.07278581417341033,-0.09397572755903504,junk
3970,-0.5746856543821953,0.330146055139744,0.5692965157459242,-0.0013695626175822232,-0.04322895672473076,-0.08449583525061448,junk
3981,-0.5122912320475833,0.3603451473010248,0.5757214134334555,-0.011308948547268693,0.002635119751867931,-0.09587170602071916,junk
3993,-0.45105878796435617,0.4104035908330952,0.5917836576522837,0.012297105758157179,-0.042209757622810914,-0.002968543951662782,junk
4004,-0.4270318715532055,0.454666899408843,0.6165640632153978,0.04770617703835958,-0.11049628113604945,0.12027036669571144,junk
4015,-0.481286096520192,0.42901919101735236,0.6904503866220071,0.09305464442618484,-0.16757156443236723,0.21886149521361084,junk
4026,-0.499115795590623,0.38806351502486236,0.6893037547936297,0.13094857745571348,-0.18591719836272685,0.28332491822982414,junk
4037,-0.48089877043639695,0.34876165532400116,0.6608503679310901,0.1334334188491669,-0.17062916173812676,0.33451646095045795,junk
4049,-0.4425312645129356,0.36365616885209334,0.6395098578531081,0.09305464442618484,-0.14616833319624806,0.36106022154161693,junk
4060,-0.39680138819340416,0.4013008232935149,0.6248254515526418,0.032797098143829875,-0.1094770820341296,0.32503653757824674,junk
4071,-0.3537827944604375,0.4286057369444452,0.614729452289994,-0.03491500285269456,-0.0004224942524924265,0.1790458543268724,junk
4082,-0.32549211632357655,0.43687820737040034,0.617712574768084,-0.00944531750217863,0.04849917952986579,0.14112619190181805,junk
4094,-0.3123166798666163,0.3992335529289788,0.6092218600651647,0.037766791108673106,0.08009443518238503,0.13354224699129094,junk
4105,-0.30844024422470107,0.34504056866783617,0.591095678555257,0.08063041710304497,0.08620964649250491,0.1392301823763433,junk
4116,-0.335181618026382,0.2701613248900896,0.5754920870677799,0.09243343407782151,0.06480641525638575,0.16198198604413402,junk
4127,-0.3456457718967774,0.26064510327760204,0.576409392530482,0.06075163506573563,0.013846326571587018,0.22265345213697907,junk
4138,-0.35533527359958295,0.2316863733350429,0.5897178406368954,-0.0038544040110356395,-0.0574977775488102,0.3041807123721401,junk
4150,-0.36347229616324295,0.19031724326964566,0.5968307174214531,-0.08399074250863638,-0.11864989065000903,0.38381202520940766,junk
4161,-0.3611483396604731,0.24782124908185676,0.6046334530273461,-0.1517028333272244,-0.14005312188612817,0.43689954639172557,junk
4172,-0.3576592301023528,0.39385526101337415,0.6259720833810193,-0.10821800716242558,-0.052401782039211,0.44069150331509377,junk
4183,-0.3642469483308329,0.45508035348175024,0.627808574030732,-0.019384703431865102,0.00875031436338698,0.41983570917277785,junk
4195,-0.37471110220122833,0.3942687150862814,0.602567636011958,0.05888799384270916,0.040345570015906225,0.3970839055049872,junk
4206,-0.38362595173644387,0.3164952927981843,0.5922423103836345,0.10858494384701431,0.04849917952986579,0.37812408982435525,junk
4217,-0.42393008807888016,0.21638179470185426,0.5975205762427883,0.12597888449087025,0.052575992636145985,0.3553722861565646,junk
4228,-0.44912215754538126,0.2172087028476687,0.591095678555257,0.10423646123053444,0.053595191738065824,0.3136606357443513,junk
4240,-0.4789621400174221,0.2610585573505093,0.5819169847553112,0.033418308492193224,0.03423035870578634,0.254885179176981,junk
4251,-0.508414796405668,0.34545402274074344,0.5977499026084637,-0.060384688203210496,-0.015710514178491713,0.21317352876476783,junk
4262,-0.5374833015140844,0.4000604610747932,0.6337748189869122,-0.12499072727998176,-0.07686261058108969,0.20558961491803135,junk
4273,-0.5704250674604505,0.3901307853893985,0.6523596532281705,-0.0889604354734796,-0.1471875322981679,0.21886149521361084,junk
4285,-0.5963886142905762,0.37068827705932683,0.6514423477654688,-0.03491500285269456,-0.1563603409140473,0.20179762693087247,junk
4296,-0.6149929655285971,0.34793474717818673,0.6521303268624951,-0.00261198331430893,-0.15432194271020763,0.18283781125024062,junk
4307,-0.6510333401453232,0.2689209626713679,0.6661286337902438,0.0004940786054442416,-0.1339379105760083,0.1809418327885565,junk
4318,-0.6603355157643336,0.2701613248900896,0.6720929990221154,-0.008824096975878874,-0.09418906210813033,0.1904217250969771,junk
4330,-0.6657612557414287,0.3342839848366269,0.675305447865881,-0.011930158895632046,-0.038132944516530716,0.1809418327885565,junk
4341,-0.672348973969909,0.4046118448445834,0.6771419385155937,-0.0038544040110356395,0.015884724775426698,0.15819002912076577,junk
4352,-0.6870768895660146,0.4203298775506793,0.6812716928220612,0.007948623141677295,0.04544158222410627,0.16198198604413402,junk
4363,-0.7029667834135053,0.3876500609519551,0.6906797129876825,0.028448615527349994,0.02505755008990694,0.26246909302371757,junk
4375,-0.7118784581447553,0.3504188605834408,0.6957286524811608,0.03838800145703647,0.014865525673506859,0.27763695178098113,junk
4386,-0.7138182633676957,0.3313864173584657,0.6932041827344219,0.04584254599326952,0.03117276140002682,0.2454052558047698,junk
4397,-0.7095545016419854,0.3392488226793244,0.697104610675214,0.04894860791302269,0.07296002477034531,0.1961096915458201,junk
4408,-0.6948265860458797,0.2937417629170441,0.6890744284279543,0.04770617703835958,0.11882410124694402,0.17146190941634523,junk
4420,-0.679711344365979,0.27512616273278695,0.6826495307404232,0.04646375634163288,0.15245775510330292,0.17525386633971352,junk
4431,-0.6688630392157542,0.2974662385410199,0.6716343462907642,0.043978904770243056,0.1738609863394221,0.18662976817360888,junk
4442,-0.6591735375129487,0.3355243470553486,0.6583258981843508,0.037766791108673106,0.1840530107558222,0.19800567000750421,junk
4453,-0.6514206662291181,0.33511089298244146,0.6519010004968196,0.028448615527349994,0.18099541345006268,0.20179762693087247,junk
4464,-0.6440582958330481,0.32518121729704663,0.6576379190873246,0.00608498191865083,0.17895699854762212,0.1961096915458201,junk
4476,-0.6308828593760878,0.34793474717818673,0.6686512238126741,0.006706192267014183,0.1840530107558222,0.1904217250969771,junk
4487,-0.6146056394448022,0.36944791484060524,0.6711756935594134,0.013539526454883885,0.17488018544134196,0.18283781125024062,junk
4498,-0.5987157455973114,0.36903446076769797,0.6656681013345839,0.011054674883494067,0.14532334469126323,0.16198198604413402,junk
4509,-0.5963886142905762,0.25733747069434426,0.6688805501783499,-0.017521072386775038,0.11168969083490429,0.13354224699129094,junk
4521,-0.5967759403743711,0.2395487786559016,0.6773712648812691,-0.0672180223910802,0.09232485780262481,0.10889446486181609,junk
4532,-0.6014270281838764,0.27926409242966993,0.6757659803215409,-0.12064224466350187,0.09640165421030417,0.0956225845662366,junk
4543,-0.6095672255515019,0.34090263897095324,0.6714050199250888,-0.1641270810062371,0.11168969083490429,0.10320649841297308,junk
4554,-0.6072400942447664,0.4004739151477005,0.6727828578434507,-0.18400586304354644,0.13207372296910364,0.13543822545297504,junk
4566,-0.6025890064352613,0.4306730073089813,0.666587286521595,-0.14797556105910786,0.1718225881355824,0.21317352876476783,junk
4577,-0.6115038559704767,0.4331571207142353,0.6512130213997931,-0.12250587570859195,0.17691860034378246,0.22834138752203145,junk
4588,-0.6169295959475719,0.4099901367601879,0.632626307434226,-0.12126345501186522,0.18507220985774203,0.22265345213697907,junk
4599,-0.608792573383912,0.3557971524990454,0.6030262887433088,-0.15667253647000404,0.20545624199194135,0.21317352876476783,junk
4611,-0.590188222145891,0.3872366068790479,0.58948851427122,-0.2132028308401153,0.23705148094585976,0.2112775503030837,junk
4622,-0.562284870092825,0.44391370454544454,0.5761800661648065,-0.26414219136321077,0.26660833839453935,0.20938157184139958,junk
4633,-0.5463949762453344,0.5084464295970784,0.5692965157459242,-0.28588460444561015,0.2798579601166989,0.21506950722645196,junk
4644,-0.5405819101844442,0.571328727324894,0.5697551684772751,-0.26289976048854763,0.2757811470104187,0.23971728935592682,junk
4656,-0.5359308223749389,0.5994605491216388,0.5608058010430047,-0.14300586809426463,0.22584027412614066,0.2947008200637195,junk
4667,-0.535543496291144,0.5642966191176606,0.541531107980411,-0.10759679681406224,0.17895699854762212,0.2871168751531924,junk
4678,-0.5320575615369892,0.5043118888680062,0.5312057823520877,-0.10821800716242558,0.1371697184787028,0.26246909302371757,junk
4689,-0.5196536024436533,0.48114490491395884,0.5429089458987727,-0.13989980617451145,0.11576650394118447,0.23402935397087443,junk
4701,-0.5165549937732936,0.49396875910970417,0.552775618795745,-0.18711192496329962,0.10965127593246378,0.20179762693087247,junk
4712,-0.5103546016286084,0.505965705159635,0.5601178219459784,-0.24115734740614825,0.11067049173298445,0.16577394296750225,junk
4723,-0.499115795590623,0.5361647973209158,0.5670013723648605,-0.29396035933020653,0.11270888993682412,0.12975029006792269,junk
4734,-0.4967886642838876,0.585809786780079,0.5727382909553653,-0.33123308201137186,0.11270888993682412,0.10889446486181609,junk
4746,-0.5002777738420079,0.651172808945338,0.5784752095458701,-0.3113542999740625,0.10455528042286456,0.1259583020807638,junk
4757,-0.5057035138191032,0.6995740472179688,0.5844414545020503,-0.26538461205993746,0.08519044739058508,0.15060608421023866,junk
4768,-0.5181042981084735,0.7078465176439239,0.58948851427122,-0.2200361446721122,0.05869120394626587,0.16956593095466113,junk
4779,-0.5312829093693993,0.6784743336284575,0.5961427383244267,-0.1982937417676492,0.039326370913986386,0.16387796450581815,junk
4791,-0.5421343893235896,0.6292461872100125,0.6131222880059566,-0.2088543482236354,0.0372879727101467,0.13543822545297504,junk
4802,-0.5417438884358291,0.6639966631410834,0.6236788197242644,-0.23991492670942152,0.04646078132602611,0.09751856302792072,junk
4813,-0.5390326058492644,0.7239813933907377,0.6383632260247306,-0.2672482532829639,0.055633589941905516,0.06339085752623462,junk
4824,-0.5386452797654693,0.7777609235789732,0.6498370632057402,-0.2734603669445339,0.05461439083998568,0.046327020307286915,junk
4835,-0.5429090414911797,0.7976202749497626,0.6553427757062606,-0.25171795386213447,0.043403184020266584,0.046327020307286915,junk
4847,-0.5460076501615394,0.7881040533372752,0.658784550915702,-0.15046041263049767,0.03117276140002682,0.1107904433235002,junk
4858,-0.5471696284129243,0.7690749990801107,0.6606210415654147,-0.09889983158110247,0.036268756909626026,0.16577394296750225,junk
4869,-0.5483347814682747,0.7425969935749949,0.6615383470281168,-0.06659680186478044,0.044422383122186423,0.20558961491803135,junk
4880,-0.5498840858034547,0.7082599717168311,0.6599330624683881,-0.06349075012296367,0.053595191738065824,0.21886149521361084,junk
4892,-0.5401945841006492,0.7157089229647826,0.6530495120495058,-0.08336953216027301,0.05869120394626587,0.20558961491803135,junk
4903,-0.5413565623520341,0.7492156477093213,0.6530495120495058,-0.10883922768872535,0.05869120394626587,0.17714984480139762,junk
4914,-0.5429090414911797,0.7814853992029488,0.6613090206624409,-0.12250587570859195,0.05767200484434602,0.1468141272868704,junk
4925,-0.5367086493464944,0.7959630696903229,0.6720929990221154,-0.12002102413720211,0.0637872161544659,0.12975029006792269,junk
4936,-0.5297304302302538,0.7972068208768553,0.6755366539558655,-0.1051119554206088,0.07194082566842548,0.12975029006792269,junk
4948,-0.5285684519788688,0.7905847777747185,0.6725535314777753,-0.051066512621887376,0.06684481346022543,0.1733578878780294,junk
4959,-0.5332195397883741,0.7901713237018113,0.6700290617310359,-0.021248344654891567,0.052575992636145985,0.19990164846918837,junk
4970,-0.5398072580168543,0.7719691775904614,0.670946367193738,-0.005096834885698749,0.039326370913986386,0.20938157184139958,junk
4981,-0.5444583458263595,0.724394847463645,0.669111756268334,-0.012551369243995402,0.03423035870578634,0.19800567000750421,junk
4992,-0.535543496291144,0.7111575391949924,0.6537374911465323,-0.0398846958175378,0.03830717181206654,0.1790458543268724,junk
5004,-0.526631821559894,0.7471483773447851,0.6564912872589471,-0.06908165343617025,0.04849917952986579,0.16387796450581815,junk
5015,-0.5188789502760633,0.7823123073487633,0.6629161849464782,-0.0821271012856099,0.06480641525638575,0.16577394296750225,junk
5026,-0.508414796405668,0.8108575832184153,0.6672752656186213,-0.07280892570428678,0.08824804469634459,0.188525746635293,junk
5037,-0.49640133820009263,0.8129248535829514,0.6716343462907642,-0.046096819657044145,0.10965127593246378,0.22075747367529494,junk
5049,-0.4917502503905874,0.792241983034158,0.6730121842091261,-0.0013695626175822232,0.13513132027486313,0.25298916965150625,junk
5060,-0.4902009460554075,0.7798315829113199,0.6672752656186213,0.001115288953807595,0.1341121211729433,0.2454052558047698,junk
5071,-0.48400055391072233,0.7752801991415298,0.6564912872589471,-0.007581676279152166,0.11780490214502418,0.2245494305986632,junk
5082,-0.45803383227663125,0.7736263828499008,0.6381338996590552,-0.020005913780228455,0.08926724379826444,0.18662976817360888,junk
5093,-0.45105878796435617,0.7901713237018113,0.6305623701431465,-0.028081668664824862,0.059710403048185715,0.14491814882518628,junk
5105,-0.45144611404815116,0.7992740912413915,0.6301037174117955,-0.028702879013188215,0.0332111596038665,0.11458240024686844,junk
5116,-0.4549352236062714,0.7984471830955772,0.6333161662555612,-0.018142282735138394,0.013846326571587018,0.1107904433235002,junk
5127,-0.46152294183475157,0.7930688911799726,0.634233471718263,-0.0007483522692188698,0.005692717057627452,0.13543822545297504,junk
5138,-0.46927263831461663,0.7839661236403921,0.6317090019715239,0.020994070991116942,-0.0004224942524924265,0.1790458543268724,junk
5149,-0.4770255095984472,0.7678346368613891,0.6307916965088222,0.06075163506573563,-0.01774892908093223,0.27384499485761293,junk
5161,-0.48903896780402256,0.7442541988344344,0.6296431849561358,0.06820617960196868,-0.022844941289132267,0.29280484160203535,junk
5172,-0.4971759903676826,0.7231544852449233,0.6291845322247848,0.06634253837894222,-0.02080652638669175,0.2890128536148765,junk
5183,-0.5053161877353082,0.7041254309877589,0.6369872678306778,0.05578193192295599,-0.015710514178491713,0.2719490163959288,junk
5194,-0.508414796405668,0.7128113554866213,0.6367579414650024,0.04149406337678963,-0.008576103766451994,0.25867713610034926,junk
5205,-0.506478165986693,0.7306000475250639,0.6344627980839387,0.03155467744710317,-0.0004224942524924265,0.2454052558047698,junk
5217,-0.5057035138191032,0.7516997611145751,0.6330868398898857,0.03155467744710317,0.005692717057627452,0.23971728935592682,junk
5228,-0.5041542094839232,0.7661774316019494,0.6356094299123161,0.04149406337678963,0.00875031436338698,0.23782131089424266,junk
5239,-0.506478165986693,0.7504593988958536,0.6374459205620289,0.05143344930647611,0.010788729265827498,0.23402935397087443,junk
5250,-0.5091926233772235,0.7272924149418063,0.6344627980839387,0.03466072918891994,0.010788729265827498,0.22834138752203145,junk
5261,-0.507640144238078,0.7206737608074799,0.632626307434226,0.011675885231857419,0.013846326571587018,0.2245494305986632,junk
5273,-0.507640144238078,0.7293596853063423,0.6356094299123161,-0.006960465930788812,0.0199615378817069,0.22075747367529494,junk
5284,-0.5204314294152088,0.7541804855520186,0.6434121655182091,-0.017521072386775038,0.02199993608554658,0.22265345213697907,junk
5295,-0.5219807337503888,0.7496291017822284,0.6470832670933256,-0.02186955500325492,0.016903940575947376,0.2245494305986632,junk
5306,-0.5289557780626638,0.7363917935135759,0.6512130213997931,-0.023733186048344984,0.009769513465306821,0.22644540906034732,junk
5317,-0.5394199319330593,0.7405297232104587,0.6539668175122078,-0.020627124128591807,0.0046735179557076114,0.23213337550919033,junk
5328,-0.5463949762453344,0.7533535774062041,0.6564912872589471,-0.00820288662751552,0.0036543188537877715,0.23782131089424266,junk
5340,-0.5549224996967549,0.7388759069188299,0.662226326125143,0.007327412793313941,0.009769513465306821,0.2454052558047698,junk
5351,-0.5595735875062602,0.722741031172016,0.6670459392529459,0.017888009071363762,0.04747998042794595,0.24919721272813805,junk
5362,-0.55453517361296,0.7310135015979712,0.6640628167748557,0.007948623141677295,0.06582561435830558,0.23782131089424266,junk
5373,-0.5409692362682392,0.7525266692603897,0.662226326125143,-0.0013695626175822232,0.07194082566842548,0.2245494305986632,junk
5384,-0.5305050823978438,0.7802450369842272,0.663374837677829,0.0004940786054442416,0.06786401256214528,0.2169655167519267,junk
5396,-0.5316702354531943,0.7823123073487633,0.6548841229749098,0.012297105758157179,0.05767200484434602,0.21317352876476783,junk
5407,-0.5332195397883741,0.7732095398091829,0.6493765307500804,0.02906982587571335,0.044422383122186423,0.21506950722645196,junk
5418,-0.5390326058492644,0.7533535774062041,0.6489178780187296,0.042115273725152995,0.0332111596038665,0.2302373970475062,junk
5429,-0.5413565623520341,0.7413566313562732,0.645705429174964,0.04956981826138604,0.0332111596038665,0.25678115763866516,junk
5440,-0.5429090414911797,0.7235679393178305,0.6376752469277043,0.03590316006358305,0.05461439083998568,0.27763695178098113,junk
5452,-0.5479474553844798,0.6900578256054811,0.6365286150993268,0.007948623141677295,0.06888321166406511,0.25678115763866516,junk
5463,-0.5529826944738145,0.6793046307420827,0.6447881237122619,-0.023733186048344984,0.09232485780262481,0.23213337550919033,junk
5474,-0.5549224996967549,0.698333684999247,0.6514423477654688,-0.046096819657044145,0.11576650394118447,0.21886149521361084,junk
5485,-0.5324448876207841,0.7657639775290422,0.6512130213997931,-0.05230893331861408,0.12595851165898372,0.2169655167519267,junk
5496,-0.5239173641693636,0.7686615450072035,0.6498370632057402,-0.043611968085654325,0.11780490214502418,0.21886149521361084,junk
5508,-0.5169423198570885,0.745081106980249,0.6470832670933256,-0.03180894093294139,0.09232485780262481,0.2169655167519267,junk
5519,-0.5146183633543187,0.7252217556094595,0.6489178780187296,-0.028702879013188215,0.06582561435830558,0.21506950722645196,junk
5530,-0.5188789502760633,0.7285327771605279,0.6512130213997931,-0.03677863389778462,0.04747998042794595,0.21886149521361084,junk
5541,-0.5177169720246785,0.748802193636414,0.6519010004968196,-0.0547937848900039,0.059710403048185715,0.22644540906034732,junk
5553,-0.5107419277124033,0.7678346368613891,0.6498370632057402,-0.05541499523836726,0.07601762207610484,0.2302373970475062,junk
5564,-0.5049288616515132,0.7748667450686225,0.6447881237122619,-0.05417257454164055,0.08926724379826444,0.22644540906034732,junk
5575,-0.49756331645147756,0.7752801991415298,0.6436414918838845,-0.05727863646139372,0.09640165421030417,0.20748559337971548,junk
5586,-0.4921375764743824,0.7761071072873442,0.6502957159370915,-0.06286953977460032,0.10047846731658436,0.18283781125024062,junk
5597,-0.4855498582459023,0.7963765237632302,0.6489178780187296,-0.06783923273944355,0.10353608132094472,0.16198198604413402,junk
5608,-0.4793494661012171,0.8067196535215322,0.6427223066968738,-0.0684604430878069,0.09844006911274468,0.1525020626719228,junk
5620,-0.4793494661012171,0.7988606371684843,0.6330868398898857,-0.061627119077873604,0.08417124828866523,0.15060608421023866,junk
5631,-0.4832259017431324,0.7818988532758561,0.6250547779183172,-0.04858166105049756,0.0637872161544659,0.1525020626719228,junk
5642,-0.4824512495755425,0.7657639775290422,0.6243667988212908,-0.03243015128130474,0.04646078132602611,0.14302217036350218,junk
5653,-0.4758635313470623,0.7492156477093213,0.6319383283371995,-0.03802106477244774,0.06276800035394524,0.1468141272868704,junk
5664,-0.4688853122308217,0.7413566313562732,0.6459347555406394,-0.05044530227352403,0.0902864429001843,0.16577394296750225,junk
5676,-0.4572591801090413,0.748802193636414,0.6613090206624409,-0.06597560169435349,0.11882410124694402,0.19421371308413599,junk
5687,-0.43051780630736025,0.8005144534601133,0.6918282245403691,-0.07902104954379313,0.1381889342792235,0.23592533243255856,junk
5698,-0.4266445454694105,0.8286462752568579,0.7067419572065107,-0.08523316320536307,0.1504193402008624,0.28142893976814,junk
5709,-0.4355562202006605,0.8311269996943013,0.7195917525815733,-0.08523316320536307,0.16366896192302202,0.3155566142060355,infinity
5720,-0.4506714618805611,0.8079600157402539,0.7289997727471945,-0.08833922512511626,0.18507220985774203,0.33830841787382615,infinity
5732,-0.4591958105280162,0.7967899778361375,0.7377198138157895,-0.10449073489430906,0.2156482497097406,0.3572682646182487,infinity
5743,-0.4599736374995717,0.830713545621394,0.7537801783103087,-0.15543010559534093,0.31349161397305786,0.3857080036710918,infinity
5754,-0.4626849200861365,0.8849065298825366,0.778562463597732,-0.16723313274805385,0.38687411629729473,0.4008758624283554,infinity
5765,-0.4704377913699671,0.9320674059364457,0.8038034016165059,-0.16599071205132718,0.48573667966253187,0.41604372118561894,infinity
5777,-0.4673360078956417,0.9568915951499326,0.817799828819946,-0.16785434309641722,0.6029449103553303,0.4312116110066732,infinity
5788,-0.444471069735876,0.9610261358790049,0.8448753777641236,-0.18214223199845636,0.7313642643748437,0.4501714266873051,infinity
5799,-0.44059463409396077,0.9916420710810036,0.8510709490859797,-0.20512707595551888,0.8740525060128398,0.48809112017615003,infinity
5810,-0.43671819845204546,1.0437643960097993,0.8432700932043954,-0.22500583763695542,1.0361055806831154,0.5335947275117315,infinity
5822,-0.4266445454694105,1.0934093854689626,0.8327154412103968,-0.23370280286991518,1.201216319453554,0.5582424785774157,infinity
5833,-0.4041637585894742,1.1236084776302433,0.8274371753512426,-0.22997553060179868,1.3663269914295888,0.5316987179862568,infinity
5844,-0.35300814229284755,1.1591858617071287,0.8260612171571898,-0.20450586560715553,1.7312010881483328,0.3003887554487719,infinity
5855,-0.2848006538973453,1.2166898675193398,0.8180291551856214,-0.16847556362271698,1.906503784540768,0.16766995249297703,infinity
5867,-0.22085375242358782,1.2775015059148087,0.7955420132792621,-0.09206649739323278,2.0542880216883637,0.04822299876897102,infinity
5878,-0.061183336585057146,1.2770880518419014,0.7317535688596093,0.017888009071363762,2.17149621898396,-0.04657617282556014,infinity
5889,0.01671365351325056,1.2837067059762277,0.688384569606619,0.14772129757326966,2.2550708960120045,-0.1110395958417734,infinity
5900,0.08298451148977792,1.2832932519033204,0.6415756748684964,0.2887363927015887,2.3121461793083222,-0.17739899731967088,infinity
5912,0.13065419303224982,1.223308521653666,0.5938475949433629,0.4303726981782711,2.3559718575810815,-0.2740941473758861,infinity
5923,0.1942105936182468,1.1509133912811735,0.5458920683768629,0.5515090316251536,2.40693194626588,-0.3992290675487351,infinity
5934,0.28722282539645516,1.1132653478719414,0.5068840295203244,0.7322817417177734,2.5047753105291974,-0.7025863358853791,infinity
5946,0.344578833837767,1.0934093854689626,0.47682535809805643,0.8503119318214115,2.5424857774918364,-0.8542650787769683,infinity
5957,0.39224851538023886,1.045421601269239,0.44148842081663453,1.00313006428038,2.5608313947235954,-1.023007596759924,infinity
5968,0.48060965934894206,1.0032255630580273,0.39972658584768134,1.1957057709919034,2.533312952177356,-1.2239816864639286,infinity
5979,0.6468677934159528,0.9304135896448168,0.3386900578161344,1.4423269917477033,2.456872835848759,-1.4685635603607836,infinity
5991,0.741429329529341,0.7595587774676232,0.308860712759542,1.7218722082977145,2.350875845372881,-1.7491690871572183,infinity
6002,0.8115766231477836,0.5386489107261699,0.24782418472799508,1.9784327335597098,2.2214372254570445,-2.0563184987999743,infinity
6014,0.8766855028729262,0.33635125520116305,0.16659753789546128,2.164175106083363,2.0675376434105233,-2.395699264717244,infinity
6025,0.9375306208723584,0.13074596709289843,0.09339919358587838,2.1933720637019958,1.7454699089724124,-3.002413925645695,infinity
6036,1.0041888049326808,-0.04548713699989978,0.05209601134827619,2.1032963392747086,1.5956472569223765,-3.1578845633330714,infinity
6048,1.070072336825413,-0.17290215977934928,0.018366238350891614,2.0405539312430276,1.4295173691458207,-3.2128680629770736,infinity
6059,1.0859622306729035,-0.41284446974577765,-0.10531210227193047,2.029993324787041,1.232811575106073,-3.2071801275920206,infinity
6070,1.021628003115351,-0.5497757141377149,-0.17254232190102442,2.05856907205731,1.0238751580628755,-3.1958042257581254,infinity
6082,0.934428837398033,-0.7065663099004413,-0.21246954594457357,2.108266032239552,0.8424572503603205,-3.2299319312598116,infinity
6093,0.8526585864617755,-0.8538406840506806,-0.22531934131963596,2.1747357125393494,0.7262682521666436,-3.301979299186552,infinity
6105,0.8135132535667584,-1.0019419663467342,-0.22256554520722144,2.2492811375458075,0.6885578519984078,-3.3645467437410814,infinity
6116,0.8247520596047442,-1.15128699982932,-0.24161091190413975,2.400235638959686,0.7221914557589642,-3.3645467437410814,infinity
6127,0.8662213490025306,-1.280359227868209,-0.308611805167558,2.4580083540265236,0.6783658442806085,-3.3512748634455014,infinity
6139,0.9003250932002818,-1.3601999205208422,-0.4047559441148513,2.508947734905492,0.55096558917141,-3.410050351076663,infinity
6150,0.8518807594902199,-1.4900990567055457,-0.5433480174038152,2.56609922944603,0.38585491719537496,-3.535185240185721,infinity
6161,0.7925881206299333,-1.5016825486825696,-0.6036946866140269,2.64499329991595,0.24418589135789948,-3.6773839975775178,infinity
6173,0.7220535009276956,-1.5327085489896648,-0.6791881743046734,2.7624023610947166,0.1371697184787028,-3.82906289578806,infinity
6184,0.6286539430656923,-1.67460802019211,-0.7537605970840004,2.902175045704245,0.06276800035394524,-3.990221468860489,infinity
6195,0.508513011402008,-1.9025499951407967,-0.8198460646090256,3.0034325869358813,0.04238396821974591,-4.132420226252286,infinity
6207,0.4178279109305349,-2.089539683064804,-0.8774389377068227,2.9642962332096263,0.18507220985774203,-4.191195713883447,infinity
6218,0.4054239518371991,-2.1226363427042463,-0.9380168130070184,2.935720485939357,0.2706851348022187,-4.103980487199443,infinity
6229,0.4499918499053456,-2.0361736069494762,-1.0311759497519128,3.0164780347853215,0.2818963583205386,-4.018661238977122,infinity
6240,0.4709201576461366,-1.9732913092216606,-1.2324117153564609,3.1935234420760152,0.20239864468618182,-3.9617817298076456,infinity
6252,0.2930358914573453,-2.0552026612066405,-1.382248299460759,3.352553393036398,0.07805603697854535,-3.9750536101032248,infinity
6263,0.017488305680840494,-2.1685568565394338,-1.5327728626620836,3.3966594397274963,-0.0391521603170514,-4.124836281341759,infinity
6274,-0.23596899410348848,-2.3518220688394655,-1.5942680434249816,3.2885685541300536,-0.08399703769173024,-4.3239145479030325,infinity
6286,-0.33867072758450234,-2.4622753077262867,-1.6183604698910692,3.049402274850007,0.002635119751867931,-4.369418124174823,infinity
6297,-0.28751193648391016,-2.3927777448319554,-1.675955222713175,2.595296349911645,0.312472414871138,-3.897318306791432,infinity
6308,-0.16620902656884085,-2.279010095426255,-1.7801295439077278,2.542493175140604,0.3155300288754984,-3.620504488408041,infinity
6320,-0.0914138199448585,-2.121809434558432,-1.899907456589758,2.6394023966027436,0.1820146125519825,-3.4915776113118238,infinity
6331,-0.31658044159232657,-1.8450493782963966,-2.127070259585798,2.8642811126747163,-0.011633717770812351,-3.559833022315196,infinity
6343,-0.562284870092825,-1.993564114665357,-2.2177068063082617,3.061826512351083,-0.17572517394632678,-3.753223322427626,infinity
6354,-0.7564463562129018,-2.1573868186353176,-2.290444618162185,3.044432581885163,-0.2389157019499661,-3.935237969216487,infinity
6365,-0.8304700854732597,-2.1549027052300636,-2.3501051879996786,2.764265992139806,-0.20935882780268572,-3.9693656436543825,infinity
6377,-0.8184566272676844,-1.9290280006459124,-2.402651001328306,2.3766295846542596,-0.15432194271020763,-3.7968311687480583,infinity
6388,-0.787838817824088,-1.639857544261039,-2.4517550394474927,2.112614514856032,-0.1716483608400466,-3.123756857831385,infinity
6399,-0.7746633813671279,-1.4801727699879619,-2.4905337519383557,2.2617053750468834,-0.23483888884368592,-2.8696950916261095,infinity
6411,-0.7572241831844573,-1.4557620348473823,-2.5240341985700647,2.410796245415672,-0.29802936675152275,-2.7805838864804215,infinity
6422,-0.6200313794218973,-1.2633974439755806,-2.6633161306803643,2.497144707752779,-0.3785462961864002,-2.8507352759454774,infinity
6433,-0.6149929655285971,-1.1860374757603909,-2.7144841060906297,2.5443568061856943,-0.5008505390873987,-3.0232697508518016,infinity
6445,-0.7335814180531361,-1.1831399082822296,-2.7528041658501414,2.567341650142757,-0.6394619008247112,-3.243203811555391,infinity
6456,-0.9343337972056585,-1.1736236866697423,-2.8023668567006785,2.543735595837331,-0.7322092695784294,-3.4764097525545603,infinity
6467,-1.0785016452804936,-1.089645064320226,-2.8294442853691653,2.35675080261695,-0.6700379573753107,-3.7892472549013223,infinity
6479,-1.061062447097823,-0.9113446898628916,-2.8340326924069843,2.329417476043408,-0.5721946599063967,-3.7380554636703627,infinity
6490,-0.9517729953883289,-0.6916717963723494,-2.845504649863685,2.3766295846542596,-0.5008505390873987,-3.5522490774046687,infinity
6502,-0.8847274852442117,-0.5406763355659451,-2.871894099435145,2.413902307335425,-0.4712936482415174,-3.3436909185349744,infinity
6513,-0.8827876800212713,-0.3921615991969843,-3.019664866524055,2.3592356541883404,-0.4743512622458778,-3.203388170668653,infinity
6524,-0.8754253096252013,-0.2386820249853262,-3.1259031250096876,2.2076599424260985,-0.537541806948118,-3.167364486705283,infinity
6536,-0.9428581458531134,-0.08271833736841408,-3.204607181819791,2.031235745483768,-0.6944988026157901,-3.2223479863492845,infinity
6547,-1.0982647999659338,0.0016737390540092544,-3.2261770182634484,1.8883569989544862,-0.8871279171380644,-3.3190431364055,infinity
6558,-1.2029031638659227,0.1580508807438288,-3.2050677142754505,1.7274631116109211,-0.9910864927115015,-3.301979299186552,infinity
6570,-1.198255250860383,0.2602316492046949,-3.15871559254437,1.6995085746890155,-0.910569563276624,-3.083941216944647,infinity
6581,-1.1304319137447103,0.20107382710085492,-3.143113880781202,1.643599500845204,-0.8249566216335465,-2.7388722360682083,infinity
6593,-0.9029413355944722,0.23830841643717993,-3.231913936853953,1.529917874781537,-0.7943805650829471,-2.338819755547768,infinity
6604,-0.7789239682888726,0.29539557920867304,-3.2817059540701656,1.3615694327238026,-0.8596094745918252,-1.9880630877966017,infinity
6615,-0.6998649999391799,0.4699748670098424,-3.317042891351588,1.1814178922678007,-1.022681815158424,-1.743481120708375,infinity
6627,-0.726606373740861,0.6685480469108734,-3.3358589316828304,1.0571755070791014,-1.2499637993375778,-1.6373060472799486,infinity
6638,-0.8595354157777105,0.6784743336284575,-3.354443765924089,1.0130694603880028,-1.487437674344325,-1.6714337527816348,infinity
6649,-1.0037032638525458,0.5924284409144053,-3.3581167472235145,0.8714331345554476,-1.6260491028760409,-1.7832968858502758,infinity
6661,-1.0529222497301973,0.5796045867186599,-3.3475602155052067,0.6906605465980646,-1.4935528689558442,-1.7093534152066892,infinity
6672,-0.9447979510760538,0.6706153172754096,-3.34388911393009,0.517963581212105,-1.350864644016449,-1.5121711581708903,infinity
6684,-0.49097559822299747,0.7173627392564116,-3.3023566053268123,0.3812969992340749,-1.2805398391895764,-1.2467334901317193,infinity
6695,-0.2305432541263933,0.7438373557937166,-3.3080935239173175,0.23717581165219348,-1.3314998109841694,-1.0571351780064477,infinity
6706,-0.03289265844819621,0.9337246111958853,-3.353067807730036,0.07006981064705874,-1.5445129576406427,-1.0836789385976064,infinity
6718,0.008186130061830034,1.1525672075728024,-3.382209173689602,-0.0821271012856099,-1.9287520042818722,-1.3984121708957273,infinity
6729,-0.14722052405099043,1.2514403434504109,-3.3510019907146478,-0.15915737786345743,-2.3884121017385858,-1.9520394038332316,infinity
6740,-0.37858753784314364,1.1521537534998951,-3.294097096713877,-0.06411196047132701,-2.9051471151223986,-2.970182198605693,infinity
6752,-0.5560844779481399,0.886150281069069,-3.3000633416700573,-0.05852105715812043,-2.8062845517571615,-3.006205882569063,infinity
6763,-0.5804987204430855,0.5853963327071718,-3.319338034732651,-0.2293543202534353,-2.5066394981361024,-2.6345931721652565,infinity
6774,-0.04800790012809684,0.03021901492366123,-3.11076006597787,-0.5772329906394442,-2.121381252392953,-2.0165028579132356,infinity
6786,0.27675867152605976,-0.006598731371945812,-3.031595476712107,-1.0002782760244013,-1.7962557870602762,-1.4287478884102545,infinity
6797,0.513938751379103,0.10261414529615372,-3.0270070696742883,-1.3910206640062097,-1.6668171671444396,-1.115910634573818,infinity
6808,0.5984234597058911,0.23085946518922848,-3.0527066604244135,-1.6966567864330369,-1.7830061653381166,-1.1538303280626627,infinity
6820,0.48177163760032693,0.3334570766908125,-3.0731279853153843,-1.9246415644247628,-2.0694018477160285,-1.4590836369885722,infinity
6831,0.2674564959070492,0.32931914699392956,-3.0735866380467356,-2.115974840261623,-2.452621812145544,-2.2459168109252454,infinity
6842,0.11476429918475914,0.17832029721971474,-3.0426106611617656,-2.112247567993507,-2.270184705341069,-2.4013872311660878,infinity
6854,0.11476429918475914,-0.09057735372146207,-2.9519741144393015,-2.1762323967219146,-1.8747343182913139,-2.3615715592155584,infinity
6865,0.5449438869064945,-0.7284929316357672,-2.78332149000376,-2.3862020338993575,-1.4395351829652858,-2.236436918616825,infinity
6876,0.8077001875058686,-0.8683217435058654,-2.8397696109974886,-2.742777842543245,-1.1877924871344592,-2.1700774860751366,infinity
6888,0.9394672512913332,-0.8008880620082597,-2.9258158709578255,-3.1614746860234675,-1.2734054287775367,-2.2724603540698705,infinity
6899,0.9088526166517022,-0.566737498030343,-2.970560828404869,-3.498171254622908,-1.649490732316,-2.5663377611618845,infinity
6910,0.7642974424930724,-0.24902176577581756,-2.9092949740076466,-3.6087469714358678,-2.137688488119473,-2.9834541099650633,infinity
6922,0.6057890049059267,-0.05955135341436673,-2.741790861124792,-2.892489923260397,-2.6554427006052057,-3.63377636870362,infinity
6933,0.5515316051349747,-0.2146847439176537,-2.5667133390017196,-2.2743838862117345,-2.531100343376582,-3.6318803902419363,infinity
6945,0.6007505910126264,-0.7417302399044197,-2.427431406891421,-1.80599008254927,-2.2803767297574695,-3.449865991963401,infinity
6956,0.7065509331640001,-2.0539622989879187,-2.214723683830172,-1.6960355760846735,-2.02251857213751,-3.241307833093707,infinity
6967,0.7174024131181904,-2.256670019618022,-2.1812232371984623,-1.9675051904191347,-1.8319278391204747,-3.1863243023859145,infinity
6979,0.6894990610651245,-2.0432057151567093,-2.1610312386731665,-2.4334141425102094,-1.736122889759598,-3.39109050433224,infinity
6990,0.671672536798659,-1.6233092144413181,-2.117891565785852,-2.798065706038693,-1.713700442722958,-3.7513273439659423,infinity
7001,0.6875624306461495,-1.372196866570773,-2.030010694900111,-2.6750657415467205,-1.7401996861672773,-4.151380041932918,infinity
7013,0.6550079907835784,-1.3693026880604224,-1.9063323542772892,-2.342717197556622,-1.723892467139358,-4.024349174362175,infinity
7024,0.5635450633405499,-1.4371464346631249,-1.7881597261549875,-1.9824142794916009,-1.6545867445241997,-3.806311092120269,infinity
7035,0.43642908736459035,-1.839671086380792,-1.5802716162215416,-1.6898234522451674,-1.5434937585387232,-3.628088433318568,infinity
7047,0.36279585899199307,-2.118084958934456,-1.526118638608877,-1.5407327447233614,-1.4354583865576065,-3.542769185096248,infinity
7058,0.2399404699377783,-2.236400603142136,-1.5144173547865005,-1.5699297023419938,-1.372267875252568,-3.6091285865741454,infinity
7070,0.13607993300934496,-2.2438461654222768,-1.4611816826365378,-1.7345507092846293,-1.3590182535304083,-3.832854852711429,infinity
7081,0.09112153405343798,-2.1983424946278074,-1.3840847901104718,-1.9383082226225659,-1.3590182535304083,-4.138108161637338,infinity
7092,0.05817976810707172,-2.082921028930478,-1.35173097530714,-2.145171808058192,-1.3314998109841694,-4.801701865778406,infinity
7104,0.013611870038925198,-1.9948044768840787,-1.3074446705914478,-2.100444540840794,-1.2723862296756168,-4.995092165890837,infinity
7115,-0.04025502884426625,-1.98859927682266,-1.2246108594748768,-2.0345960810672956,-1.15619723148194,-5.02353190494368,infinity
7126,-0.20263990207332735,-2.1834479810997154,-1.0669715397646857,-2.0283839572277893,-0.9982209031235412,-4.942004613644728,infinity
7138,-0.32975587804928685,-2.0916069534293404,-1.0045590535390858,-2.073111214267251,-0.8269950198373862,-4.887021114000726,infinity
7149,-0.44873483146158627,-2.0047341525694735,-0.9148416920036327,-2.1029293924121837,-0.6527115225468709,-4.966652395774203,infinity
7161,-0.560735565757645,-2.0163176445464974,-0.8606887143909681,-2.1054142439835735,-0.4661976527319182,-5.169522619258845,infinity
7172,-0.6804891713375345,-2.0527219367691973,-0.8570176128158514,-2.124671805494583,-0.3000677649553624,-5.4463361891319115,infinity
7183,-0.7831877300145829,-2.0183849149110333,-0.842791859246736,-2.2861869133644475,-0.20120521828872617,-6.189561641003316,infinity
7195,-0.844032848014015,-1.93399283848861,-0.7842798009619283,-2.351414162789582,-0.16451395042800687,-6.597198066434283,infinity
7206,-0.8761999617927912,-1.862838070334839,-0.6867597038205822,-2.3812323409345146,-0.04730576983101096,-6.891075473526297,infinity
7217,-0.978127043106215,-1.7217688962460194,-0.4871311025000713,-2.3955202094806807,0.1432849297888227,-7.016210362635355,infinity
7229,-1.0974901477983439,-1.5827669925217351,-0.41026165661537173,-2.4054596055883035,0.3562981098424978,-7.03137825245641,infinity
7240,-1.226545928997244,-1.3961907586706348,-0.3439487424489799,-2.393035368087227,0.5530040040738505,-7.027586264469251,infinity
7251,-1.337772011125713,-1.2319546006277677,-0.2982864795392347,-2.340232356163169,0.718114642652684,-7.073089871804832,infinity
7263,-1.4393085915513761,-1.1326680106772522,-0.27212823605775877,-2.264444500282048,0.8373612381521204,-7.1754729572461,infinity
7274,-1.5241838007659245,-1.048275934254829,-0.24115037944847986,-2.1408233152637757,0.9453966268318379,-7.404886941321901,infinity
7285,-1.5737901127273715,-0.9163095277055888,-0.1899824040382143,-2.076838486535368,0.9892223051045967,-7.46745438587643,infinity
7297,-1.592778615245222,-0.7677914023688175,-0.13055116056639582,-1.9917324550729238,1.054451214613475,-7.439014646823587,infinity
7308,-1.6164182055725773,-0.5518463734700616,-0.020641800505646842,-1.8886112726182607,1.1441410194586352,-7.274064116827789,infinity
7320,-1.6594367993055439,-0.443870470052873,0.026856953053811042,-1.7842476694668707,1.2480995950320724,-6.95553889654251,infinity
7331,-1.7551634884742828,-0.3263817339910074,0.06379917489496138,-1.687959821200077,1.33778934978143,-6.513774796673648,infinity
7342,-1.850499676755261,-0.211377111334396,0.08238588886052868,-1.58670242245955,1.388749304877422,-6.047362883611519,infinity
7354,-1.919481817318353,-0.12987921342232311,0.09821880671368124,-1.3997176292391693,1.3408469470871895,-5.417896450079068,infinity
7365,-1.9741265431731,-0.12408746743381141,0.13332453790511886,-1.3692782509238104,1.2898868751009918,-5.298449496355063,infinity
7376,-2.0028077221977214,-0.11540154293494889,0.1847237194053689,-1.3848085503446397,1.2542148063421923,-5.235882051800533,infinity
7388,-2.003969700449107,-0.0053583691532242215,0.2439237567872029,-1.397232787845716,1.2358691724118325,-5.1600426958866334,infinity
7399,-1.9706406084189454,0.2817448168671133,0.35222783228822346,-1.3556115825480708,1.237907587314273,-5.014051981571468,infinity
7410,-1.9454485389524443,0.31773565501690587,0.4029390346914471,-1.2437933534369567,1.2786756515826718,-4.7429268441041055,infinity
7422,-1.9229709268764736,0.2871231087827179,0.4442422169290491,-1.0959449139428317,1.394864516187542,-4.350458308494192,infinity
7433,-1.926072710350799,0.2850558384181818,0.4756768465453701,-0.966732835789289,1.581378436098297,-3.882150416970378,infinity
7444,-1.9380861685563744,0.34752129310527957,0.4871506837263797,-0.8157784056209656,1.942175836600967,-3.0953171187785418,infinity
7456,-1.9369241903049892,0.4149549746028854,0.47223507133592896,-0.8157784056209656,1.9798863035636058,-2.915198698961691,infinity
7467,-1.9206469703737035,0.4472213371287023,0.45318970463901065,-0.8872177076400517,1.8932541461200079,-2.8772790365366365,infinity
7478,-1.7505124006647774,0.6586183712254787,0.48278972332992787,-0.9654904049146259,1.7312010881483328,-2.9284705792572705,infinity
7490,-1.6342479046430083,0.8791147838940248,0.5240929055675301,-0.9735661597992223,1.5497831804457778,-2.937950502629482,infinity
7501,-1.5528618049865803,1.0532806176222869,0.5812290056582847,-0.8735510392643122,1.3938453170856222,-2.757832082812631,infinity
7512,-1.509843211253614,1.1074736018834295,0.6305623701431465,-0.6691723970015034,1.316386118545311,-2.3445077219966106,infinity
7524,-1.5001537095508082,1.0048793793496562,0.6647507958718823,-0.41136944086484534,1.3571541828137097,-1.8079446679797508,infinity
7535,-1.516430929482094,0.8129248535829514,0.6849427943971781,-0.1150513413502953,1.8219100419996104,-1.1140146561121336,infinity
7546,-1.5350352807201149,0.6739263388264781,0.6700290617310359,-0.21693010310823183,2.0797680660307627,-1.127286536407713,infinity
7558,-1.4962804487128585,0.6553073496744102,0.6165640632153978,-0.44864211265632864,2.1470353737434804,-1.311196944211723,infinity
7569,-1.3683866457653435,0.786036782972739,0.5578226785649146,-0.6710360280465936,1.9656174827395265,-1.498899277875311,infinity
7580,-1.069586795745278,1.2994281276501343,0.5364840482112414,-0.7356420671233648,1.6027816673344164,-1.5197551030814174,infinity
7592,-1.020367809867626,1.346175549631136,0.570672473939977,-0.5908996488372472,1.2114083438699539,-1.2827571740950894,infinity
7603,-1.0409087915246222,1.1939363376381997,0.6073872491397608,-0.3132179310191526,0.9474350250356776,-0.8523691003152843,infinity
7614,-1.092451733905044,0.9639237033571662,0.6362974090093425,-0.04174832686262786,0.8913789408412796,-0.3992290675487351,infinity
7626,-1.11570717295257,0.7533535774062041,0.6525889795938463,0.05143344930647611,1.2745988384763915,-0.00676050087503102,infinity
7637,-1.0823780809224088,0.7016413175825049,0.6594744097370373,-0.11443013100193193,1.5110535143812187,-0.09966369400787804,infinity
7648,-1.0130054394715562,0.8497425998785584,0.6574085927216492,-0.2771876392126504,1.626223313472976,-0.272198168914202,infinity
7659,-0.9370450797922234,1.0768610556492415,0.6546547966092344,-0.34303611934202116,1.5701672125799773,-0.41629287370389223,infinity
7671,-0.7320321137179562,1.3523807496925553,0.6613090206624409,-0.29520279020486967,1.376519015845989,-0.43714866784620815,infinity
7682,-0.671186995718524,1.3391434414239027,0.6746174687688543,-0.1746876772842869,1.139045023949036,-0.3082218839413628,infinity
7693,-0.6878515417336045,1.2133788459682713,0.6888451020622789,-0.04112711651426451,0.9535502363457974,-0.07311993341671906,infinity
7705,-0.726219047657066,1.0627968392347744,0.7062833044751599,0.057645573145982454,0.8954557372489589,0.17714984480139762,infinity
7716,-0.7494713119006267,0.9709558115643996,0.732441547956636,0.08622132041625155,0.9902415042065167,0.3534763076948804,infinity
7727,-0.733194091969341,0.9378591519249575,0.7540113844002931,-0.07218771535592343,1.422382958733781,0.33451646095045795,infinity
7738,-0.6568464062062133,0.9841931198330522,0.7556166689600214,-0.19891495211601254,1.5477447822419381,0.19990164846918837,infinity
7750,-0.5487221075520698,1.116989823495917,0.7308343836725986,-0.27283915659617053,1.4927078804508593,0.07666273782181411,infinity
7761,-0.3491348814548978,1.4144327503067458,0.6569499399902979,-0.24550583002262813,1.2684836271662716,0.025471195101180306,infinity
7772,-0.3344069658587921,1.3925095175392308,0.647312593459001,-0.1380361751294214,0.9749534842805173,0.052014955692339264,infinity
7783,-0.35068418579007765,1.2795721652471554,0.6496077368400648,-0.0013695626175822232,0.7446138860970032,0.13733420391465917,infinity
7795,-0.36540892658221785,1.1670448780601765,0.6523596532281705,0.11790311942833744,0.6630778243546093,0.26246909302371757,infinity
7806,-0.3700600143917231,1.1111980775074053,0.6484592252873788,0.19306975478315852,0.729325866171004,0.3970839055049872,infinity
7817,-0.37471110220122833,1.0814124394190314,0.6406583694057943,0.18747887182582473,1.0401823937893955,0.6189139446702608,infinity
7828,-0.35649725185096787,1.041283671572356,0.6413463485028208,0.0911910133810948,1.1206993900186764,0.6359777818892085,infinity
7840,-0.30069054774483595,1.0110845794110752,0.658784550915702,-0.05603620558673061,1.1023536892939132,0.5430745887563615,infinity
7851,-0.23364503760071864,1.0524537094764725,0.6681925710813232,-0.19083919723141612,0.976991882484357,0.3724361233755123,infinity
7862,-0.09606490775436374,1.3316944901759513,0.6333161662555612,-0.24364219897753805,0.7486906992032835,0.20558961491803135,infinity
7873,-0.07126016437165754,1.3606532201185104,0.6227596345372535,-0.20139980368740235,0.46739106243077305,0.1316462685296068,infinity
7885,-0.08676273213535328,1.302735760233392,0.6133516143716322,-0.08399074250863638,0.21870584701550014,0.17146190941634523,infinity
7896,-0.1297813258683199,1.2162764134464326,0.606009411221399,0.060130414539435864,0.06480641525638575,0.2719490163959288,infinity
7907,-0.18481337780686183,1.1434644400332221,0.6094511864308401,0.17256978275335863,0.015884724775426698,0.3724361233755123,junk
7918,-0.227054144568273,1.0611396339753347,0.6404290430401189,0.19431218565782163,0.13513132027486313,0.4558593931361481,junk
7930,-0.24294403841576362,0.9846065739059595,0.6773712648812691,0.1141758573381573,0.2329746845381804,0.4425875128405686,junk
7941,-0.21930444808840796,0.9792282819903548,0.6881552432409436,0.009191043838404002,0.2747619479084989,0.3970839055049872,junk
7952,-0.1417947840738952,1.1054063315188933,0.6652094486032331,-0.07839982901749337,0.22685947322806052,0.3364124394121421,junk
7963,-0.13753102234818496,1.1815259375153617,0.6576379190873246,-0.1175361827437487,0.11984330034886384,0.2890128536148765,junk
7975,-0.14256943624148513,1.2319944461525283,0.6523596532281705,-0.10200589350085564,0.014865525673506859,0.2795329613064559,junk
7986,-0.16000863442415567,1.2452351433889919,0.6541961438778832,-0.05541499523836726,-0.042209757622810914,0.3136606357443513,junk
7997,-0.18597535605824678,1.2208277972162227,0.6730121842091261,-0.010066527850541985,-0.03609456301129187,0.3667481879904599,junk
8008,-0.2072909898828326,1.1765610996726643,0.6996290804219529,0.011675885231857419,0.12697771076090356,0.4387955248534097,junk
8019,-0.21232940377613282,1.150086483135359,0.7186744471188713,-0.0057180452340621045,0.2350130827420201,0.44637946976393683,junk
8031,-0.19760148818002712,1.1488427319488266,0.7198210789472487,-0.03864227512081109,0.3155300288754984,0.42741962301951436,junk
8042,-0.172409418713526,1.163737245476919,0.7104130587816274,-0.0821271012856099,0.3491636827318573,0.38191604674772356,junk
8053,-0.0871500582191482,1.314319252210416,0.7094957533189254,-0.11567255169865864,0.33183726460201834,0.3288285255654056,junk
8064,-0.054208292272782024,1.4007819879651862,0.7028415292657185,-0.1119452794305421,0.268646736598379,0.2965967985254036,junk
8075,-0.04800790012809684,1.4347055557504425,0.6888451020622789,-0.061627119077873604,0.17997619764954198,0.2890128536148765,junk
8087,-0.06312314180799757,1.4111251177234878,0.6792077555309818,0.015403157499973945,0.1014976664185042,0.2890128536148765,junk
8098,-0.08676273213535328,1.3606532201185104,0.6757659803215409,0.08746374111297826,0.060729602150105554,0.2795329613064559,junk
8109,-0.10265262598284385,1.302735760233392,0.669111756268334,0.1607667556006457,0.07601762207610484,0.21886149521361084,junk
8120,-0.10769103987614409,1.2402703055462942,0.656032634527596,0.153933421412776,0.09436325600646447,0.1733578878780294,junk
8132,-0.10691638770855415,1.1827662997340833,0.6436414918838845,0.11914555030300054,0.10659367862670424,0.12216634515739558,junk
8143,-0.09606490775436374,1.1641506995498263,0.634233471718263,0.07876678605795491,0.11270888993682412,0.07097480243676174,junk
8154,-0.058472053998492333,1.2257892460911095,0.619547185693488,0.057024362797619105,0.11067049173298445,0.031159161550023292,junk
8165,-0.05653224877555192,1.2386164892546654,0.6133516143716322,0.06261526611082568,0.09945926821466453,0.012199314805600815,junk
8177,-0.05459561835657704,1.217103321592247,0.6057800848557235,0.08684254094255132,0.08213283338622472,0.027367173562864413,junk
8188,-0.06079601050126214,1.1608396779987578,0.5982085553398148,0.11479706768652066,0.05767200484434602,0.07666273782181411,junk
8199,-0.07978768782307816,1.0979607692387527,0.5922423103836345,0.13281220850080352,0.03423035870578634,0.14112619190181805,junk
8210,-0.09489975469901325,1.041283671572356,0.5908663521895816,0.10734252315028761,0.017923139677867215,0.1790458543268724,junk
8222,-0.09645223383815875,1.004465925276749,0.5938475949433629,0.06820617960196868,0.015884724775426698,0.13733420391465917,junk
8233,-0.08676273213535328,1.0114980334839825,0.5968307174214531,0.03466072918891994,0.010788729265827498,0.10699848640013196,junk
8244,-0.06699640264594732,1.0838931638564748,0.6050921057586971,0.02161528133948029,-0.0004224942524924265,0.11458240024686844,junk
8255,-0.07358729567839296,1.1037525152272645,0.6110583507148774,0.03155467744710317,-0.014691315076571872,0.1600860075824499,junk
8267,-0.07940036173928315,1.1074736018834295,0.6227596345372535,0.052054659654839464,-0.025902538594891795,0.22644540906034732,junk
8278,-0.08288629649343798,1.0954766558334987,0.6358387562779915,0.07069103117335851,-0.032017749905011675,0.28332491822982414,junk
8289,-0.09063916777726858,1.0644506555264033,0.6436414918838845,0.07503951378983838,-0.0391521603170514,0.3098686788209831,junk
8300,-0.10691638770855415,1.0479023257066824,0.6525889795938463,0.02161528133948029,-0.03405614810885135,0.27574097331929703,junk
8311,-0.11892984591412947,1.0731365800252657,0.6631455113121536,-0.008824096975878874,-0.01265291687273219,0.25298916965150625,junk
8323,-0.11466608418841921,1.0996145855303816,0.6663579601559192,-0.02683924796809815,0.005692717057627452,0.23213337550919033,junk
8334,-0.10187797381525392,1.106646693737615,0.6668166128872705,-0.03243015128130474,0.009769513465306821,0.22075747367529494,junk
8345,-0.109240344211324,1.127332953254219,0.6592450833713619,-0.021248344654891567,-0.002460892456332107,0.22265345213697907,junk
8356,-0.11544073635600914,1.1347785155343597,0.6523596532281705,0.006706192267014183,-0.02488333949297195,0.22075747367529494,junk
8367,-0.12667954239399454,1.1099577152886835,0.6599330624683881,0.03590316006358305,-0.0391521603170514,0.19990164846918837,junk
8379,-0.14373141449287008,1.0706558555878225,0.6776005912469445,0.04956981826138604,-0.032017749905011675,0.1733578878780294,junk
8390,-0.15148428577670067,1.0462485094150533,0.6835668362031248,0.04522133564490617,0.002635119751867931,0.16577394296750225,junk
8401,-0.15070963360911074,1.0590723636107986,0.6757659803215409,0.019130429768090474,0.09640165421030417,0.24919721272813805,junk
8412,-0.15342091619567555,1.0764476015763342,0.6704877144623868,0.010433464535130712,0.12595851165898372,0.29280484160203535,junk
8423,-0.15303359011188059,1.0789283260137776,0.6695704089996851,0.007948623141677295,0.13003532476526392,0.3155566142060355,junk
8435,-0.1324926084548847,1.084306617929382,0.6608503679310901,0.010433464535130712,0.10761287772862407,0.3136606357443513,junk
8446,-0.09683955992195367,1.09837422331166,0.6165640632153978,0.010433464535130712,0.0637872161544659,0.2871168751531924,junk
8457,-0.09722688600574868,1.1070601478105222,0.6117463298119038,0.008569833490040648,0.02301915188606726,0.2510931911898222,junk
8468,-0.1014906477314589,1.1095442612157762,0.6179419011337595,0.012918316106520531,0.005692717057627452,0.23402935397087443,junk
8479,-0.11195162679788881,1.1037525152272645,0.6193178593278126,0.026584974304323532,0.011807928367747338,0.2510931911898222,junk
8491,-0.10846569204373402,1.0913421151044265,0.6108290243492017,0.04584254599326952,0.028115147395666465,0.2871168751531924,junk
8502,-0.10846569204373402,1.0570050932462627,0.6046334530273461,0.05081223895811275,0.053595191738065824,0.2890128536148765,junk
8513,-0.1197044980817194,1.0218411632422844,0.6094511864308401,0.022857702036207,0.06174880125202539,0.254885179176981,junk
8524,-0.11427875810462419,1.0375591959483803,0.614729452289994,-0.014415010467021866,0.0637872161544659,0.22834138752203145,junk
8535,-0.09180114602865343,1.0950632017605915,0.6135828204616165,-0.03802106477244774,0.04136476911782607,0.2169655167519267,junk
8546,-0.07164749045545256,1.1600127698529432,0.6096805127965157,-0.033672582155967856,-0.0034800915582519475,0.2245494305986632,junk
8558,-0.08211164432584796,1.1484292778759195,0.6080752282367873,-0.011308948547268693,-0.049344168034850644,0.2435092773430857,junk
8569,-0.09412510253142332,1.1269194991813116,0.6154174313870203,0.010433464535130712,-0.07482421237725,0.2643650714854016,junk
8580,-0.10071282075990343,1.1252622939218722,0.6294138585904602,0.020372860642753586,-0.07584341147916984,0.2719490163959288,junk
8591,-0.09916351642472357,1.1484292778759195,0.6434121655182091,0.02223649168784365,-0.05851699334933089,0.26626104994708577,junk
8602,-0.10458925640181872,1.1567051372696855,0.6525889795938463,0.04584254599326952,-0.038132944516530716,0.2700530379342446,junk
8614,-0.11350410593703426,1.1318809480561984,0.6548841229749098,0.059509204191072515,-0.038132944516530716,0.27384499485761293,junk
8625,-0.11660271460739409,1.0909252720637084,0.6539668175122078,0.057645573145982454,-0.04119055852089108,0.26626104994708577,junk
8636,-0.12125380241689931,1.0702424015149152,0.6505250423027669,0.04460012529654281,-0.05138258293729116,0.23971728935592682,junk
8647,-0.15419556836326548,1.05741854731917,0.6441001446152356,0.030312246572440058,-0.06361298885893009,0.20179762693087247,junk
8658,-0.1782256595783817,1.0292867255224252,0.644329470980911,0.01726679872300041,-0.06667060286329045,0.15819002912076577,junk
8680,-0.199538118599002,0.9850200279788666,0.6519010004968196,0.0017364993021709509,-0.01978732728477191,0.12785428054244793,junk
8691,-0.19256307428672692,0.9916420710810036,0.6480005725560275,-0.0007483522692188698,0.016903940575947376,0.14871010574855453,junk
8703,-0.18442605172306686,1.0135653038485186,0.6424929803311982,-0.0007483522692188698,0.040345570015906225,0.17146190941634523,junk
8714,-0.17512387610405636,1.0197705039099376,0.6395098578531081,0.011054674883494067,0.04238396821974591,0.20938157184139958,junk
8725,-0.16311041789848102,0.9953631577371685,0.6358387562779915,0.016024378026273704,0.0332111596038665,0.23592533243255856,junk
8736,-0.15380824227947051,0.9738533790425609,0.6307916965088222,0.013539526454883885,0.020980736983626742,0.26626104994708577,junk
8748,-0.14373141449287008,1.0503864391119364,0.6404290430401189,0.011054674883494067,0.0067119161595473,0.29090886314035125,junk
8759,-0.1348197397616201,1.080585531273217,0.6514423477654688,0.02161528133948029,-0.007556904664532145,0.30797270035929897,junk
8770,-0.13055597803590982,1.0723096718794514,0.654425470243559,0.04460012529654281,-0.01978732728477191,0.31745262373151023,junk
8781,-0.13094330411970478,1.0487292338524967,0.6514423477654688,0.0651001176822155,-0.03303694900693151,0.31745262373151023,junk
8792,-0.13365458670626965,1.0325977470734937,0.6493765307500804,0.07069103117335851,-0.04628657072909111,0.3098686788209831,junk
8804,-0.1510969596929057,1.022668071388099,0.6532788384151816,0.04894860791302269,-0.049344168034850644,0.2965967985254036,junk
8815,-0.17512387610405636,1.0114980334839825,0.6645214695062065,0.03093346709873981,-0.03405614810885135,0.2871168751531924,junk
8826,-0.1921757482029319,0.9945362495913542,0.6750761215002056,0.012918316106520531,-0.011633717770812351,0.28142893976814,junk
8837,-0.20302722815712232,0.9841931198330522,0.6824202043747474,0.0017364993021709509,0.011807928367747338,0.28332491822982414,junk
8848,-0.22201573067497277,0.9937093414455397,0.6895330811593051,-0.0019907729659455766,0.03219196050194666,0.2947008200637195,junk
8860,-0.22240623156273326,1.016876325399587,0.6893037547936297,-0.0007483522692188698,0.05053759443230631,0.30797270035929897,junk
8871,-0.2127167298599278,1.0317674499598686,0.6915970184503846,0.0023577096505343043,0.06888321166406511,0.31934860219319433,junk
8882,-0.19760148818002712,1.037145741875473,0.6915970184503846,0.009191043838404002,0.08824804469634459,0.33262048248877385,junk
8893,-0.18985179170016206,1.0354919255838442,0.683108183471774,0.01850921941972712,0.10863207683054392,0.3402043963355103,junk
8904,-0.1801622899973566,1.0313539958869613,0.6704877144623868,0.020372860642753586,0.14022733248306316,0.31745262373151023,junk
8916,-0.1673741796241913,1.0400433093536343,0.6592450833713619,0.014160736803247238,0.14838094199702273,0.30228473391045596,junk
8927,-0.1584593300889758,1.0623833851618671,0.6500663895714156,0.014781947151610592,0.15347695420522278,0.2965967985254036,junk
8938,-0.15497022053085546,1.0739668771388908,0.6424929803311982,0.02223649168784365,0.15347695420522278,0.3003887554487719,junk
8949,-0.15884665617277077,1.033011201146401,0.6305623701431465,0.025963763955960173,0.14532334469126323,0.30228473391045596,junk
8960,-0.15419556836326548,1.0263925470120745,0.6204663708804986,0.017888009071363762,0.12595851165898372,0.2965967985254036,junk
8972,-0.14683319796719546,1.0483157797795895,0.6101391655278665,0.004221350873560769,0.09436325600646447,0.2871168751531924,junk
8983,-0.14528389363201555,1.0714827637336368,0.6032556151089844,0.0029789199988976577,0.055633589941905516,0.27763695178098113,junk
8994,-0.1510969596929057,1.080585531273217,0.5970600437871286,0.02161528133948029,0.02505755008990694,0.27384499485761293,junk
9005,-0.16272309181468605,1.061553088048242,0.5954547592274002,0.0651001176822155,-0.010614518668892504,0.2681570594725605,junk
9017,-0.17396189785267144,1.028873271449518,0.5963720646901021,0.07379708291517528,-0.015710514178491713,0.27763695178098113,junk
9028,-0.18248624650012643,1.0032255630580273,0.5966013910557777,0.06882738995033204,-0.01978732728477191,0.28332491822982414,junk
9039,-0.1964395099286422,0.9730230819289357,0.6014210041835805,0.04832738738672293,-0.01978732728477191,0.2719490163959288,junk
9050,-0.19682683601243717,0.9672313359404239,0.6126636352746057,0.014781947151610592,-0.010614518668892504,0.24161329888140157,junk
9061,-0.18597535605824678,1.0156359631808654,0.6204663708804986,-0.016899851860475282,-0.0014416933544122669,0.21317352876476783,junk
9072,-0.17512387610405636,1.0441812390505172,0.6280379003964074,-0.02746045831646151,-0.0004224942524924265,0.20558961491803135,junk
9084,-0.1650470483174559,1.0450081471963317,0.6319383283371995,-0.015657431163748573,-0.006537705562612305,0.22075747367529494,junk
9095,-0.16000863442415567,1.0379726500212874,0.6330868398898857,0.0017364993021709509,-0.013672115974652031,0.23402935397087443,junk
9106,-0.1510969596929057,1.0392164012078198,0.6360680826436671,0.011675885231857419,-0.032017749905011675,0.23971728935592682,junk
9117,-0.15148428577670067,1.0524537094764725,0.6438708182495599,0.013539526454883885,-0.038132944516530716,0.24919721272813805,junk
9128,-0.16272309181468605,1.0532806176222869,0.6509836950341177,0.02161528133948029,-0.038132944516530716,0.25867713610034926,junk
9140,-0.1696981361269612,1.0383894930620055,0.6558014284376119,0.02906982587571335,-0.030998550803091825,0.25298916965150625,junk
9151,-0.2014779238219424,0.9957766118100758,0.6672752656186213,0.020994070991116942,-0.01876812818285207,0.22265345213697907,junk
9162,-0.20767831596662756,1.0007414496527731,0.6748467951345302,0.001115288953807595,-0.002460892456332107,0.18473378971192472,junk
9173,-0.20302722815712232,1.0297001795953324,0.6769126121499183,-0.019384703431865102,0.013846326571587018,0.14871010574855453,junk
9184,-0.1937250525381118,1.0541075257681014,0.6773712648812691,-0.0262180376197348,0.02505755008990694,0.12406232361907969,junk
9196,-0.1890739647286066,1.0441812390505172,0.6737001633061528,-0.015657431163748573,0.029134346497586304,0.12027036669571144,junk
9207,-0.19023911778395702,1.0077735578600067,0.6649801222375578,0.011675885231857419,0.02607674919182678,0.15060608421023866,junk
9218,-0.1921757482029319,0.970128903418585,0.6613090206624409,0.0023577096505343043,0.028115147395666465,0.1600860075824499,junk
9229,-0.19915079251520704,0.955234389890493,0.6670459392529459,-0.01503622081538522,0.043403184020266584,0.16387796450581815,junk
9240,-0.20961494638560244,0.9643371574300734,0.6730121842091261,-0.02932408936155157,0.06582561435830558,0.16577394296750225,junk
9252,-0.20070327165435248,0.9879175954570278,0.6668166128872705,-0.03553621320105792,0.08213283338622472,0.16577394296750225,junk
9263,-0.1944997047057018,0.9961900658829831,0.657867245453,-0.030566520236214683,0.08213283338622472,0.16577394296750225,junk
9274,-0.18829931256101662,1.0007414496527731,0.6470832670933256,-0.015657431163748573,0.06684481346022543,0.1733578878780294,junk
9285,-0.17977496391356163,0.9891579576757495,0.6395098578531081,0.004221350873560769,0.04238396821974591,0.18283781125024062,junk
9296,-0.18442605172306686,0.959372319587376,0.6369872678306778,0.025342553607596817,0.02199993608554658,0.19231773462245186,junk
9308,-0.2003159455705575,0.9320674059364457,0.6385925523904062,0.030312246572440058,0.029134346497586304,0.21317352876476783,junk
9319,-0.20651633771524266,0.9341380652687925,0.6438708182495599,0.008569833490040648,0.04849917952986579,0.2169655167519267,junk
9330,-0.2014779238219424,0.9630967952113516,0.6530495120495058,-0.015657431163748573,0.0637872161544659,0.21886149521361084,junk
9341,-0.1937250525381118,0.9899848658215639,0.6647507958718823,-0.029945309887851327,0.06582561435830558,0.22075747367529494,junk
9352,-0.17551120218785135,1.0206008010235628,0.6675045919842967,-0.02932408936155157,0.060729602150105554,0.22265345213697907,junk
9363,-0.17318724568508145,1.021427709169377,0.6629161849464782,-0.023111975699981625,0.049518378631785626,0.21506950722645196,junk
9375,-0.17744783260682623,1.0160494172537726,0.6608503679310901,-0.017521072386775038,0.039326370913986386,0.19990164846918837,junk
9386,-0.1782256595783817,1.0061197415683778,0.6569499399902979,-0.015657431163748573,0.040345570015906225,0.18283781125024062,junk
9397,-0.1743492239364664,1.0003279955798658,0.6512130213997931,-0.015657431163748573,0.053595191738065824,0.17714984480139762,junk
9408,-0.17938763782976666,0.994122795518447,0.6470832670933256,-0.023111975699981625,0.08315204918674539,0.2036936053925566,junk
9419,-0.18558802997445178,0.9961900658829831,0.645705429174964,-0.0262180376197348,0.09334405690454464,0.2112775503030837,junk
9431,-0.1871373343096317,1.008187011932914,0.645705429174964,-0.020005913780228455,0.10047846731658436,0.20748559337971548,junk
9442,-0.18791198647722165,1.0110845794110752,0.647312593459001,-0.0057180452340621045,0.10251686552042405,0.20558961491803135,junk
9453,-0.19295040037052189,0.9713692656373069,0.6418050012341718,0.006706192267014183,0.09640165421030417,0.20938157184139958,junk
9464,-0.18481337780686183,0.9486157357561668,0.6330868398898857,0.00981225418676736,0.07805603697854535,0.2112775503030837,junk
9476,-0.17473655002026137,0.949029189829074,0.6273499212993809,0.003600140525197416,0.053595191738065824,0.21317352876476783,junk
9487,-0.17744783260682623,0.9659909737217023,0.6307916965088222,-0.0038544040110356395,0.03219196050194666,0.21886149521361084,junk
9498,-0.1886866386448116,0.9833662116872377,0.6401997166744433,-0.0044756143593989925,0.028115147395666465,0.22834138752203145,junk
9509,-0.19333772645431685,0.9821258494685161,0.6480005725560275,0.011054674883494067,0.07805603697854535,0.2605731145620334,junk
9520,-0.18985179170016206,0.9651640655758877,0.6498370632057402,0.007948623141677295,0.10353608132094472,0.2643650714854016,junk
9531,-0.18093694216494652,0.9597857736602833,0.6445587973465865,-0.0013695626175822232,0.11067049173298445,0.25867713610034926,junk
9543,-0.1569100257537959,0.9866772332383063,0.6323969810685504,-0.007581676279152166,0.09436325600646447,0.24730123426645392,junk
9554,-0.1557448726984454,0.9916420710810036,0.6296431849561358,-0.00820288662751552,0.060729602150105554,0.23592533243255856,junk
9565,-0.16388507006607098,0.9895714117486568,0.6266619422023545,-0.006339255582425458,0.0240383509879871,0.22644540906034732,junk
9576,-0.1778351586906212,0.9875041413841207,0.6275792476650564,-0.006960465930788812,-0.002460892456332107,0.21886149521361084,junk
9587,-0.1871373343096317,0.9924689792268181,0.6317090019715239,-0.010687738198905339,-0.010614518668892504,0.2112775503030837,junk
9599,-0.18520070389065682,1.014809055035051,0.632167654702875,-0.007581676279152166,0.0005967048494274138,0.20558961491803135,junk
9610,-0.18481337780686183,1.030940541814054,0.6284965531277584,0.033418308492193224,0.036268756909626026,0.20938157184139958,junk
9621,-0.1886866386448116,1.008187011932914,0.6319383283371995,0.05081223895811275,0.04849917952986579,0.2169655167519267,junk
9632,-0.1875246603934267,0.9659909737217023,0.6431828391525335,0.04646375634163288,0.05869120394626587,0.2245494305986632,junk
9643,-0.17396189785267144,0.9850200279788666,0.6523596532281705,0.025963763955960173,0.06480641525638575,0.2302373970475062,junk
9655,-0.17163476654593607,1.021427709169377,0.6532788384151816,0.008569833490040648,0.06174880125202539,0.2302373970475062,junk
9666,-0.17473655002026137,1.0276329092307963,0.6505250423027669,0.004842561221924123,0.052575992636145985,0.2245494305986632,junk
9677,-0.1782256595783817,0.9990876333611444,0.6463952879962993,0.011054674883494067,0.04238396821974591,0.21317352876476783,junk
9688,-0.18054961608115155,0.9717827197102141,0.6466246143619747,0.014160736803247238,0.0332111596038665,0.19990164846918837,junk
9699,-0.1801622899973566,0.9684750871269562,0.6519010004968196,0.007327412793313941,0.027095948293746622,0.188525746635293,junk
9711,-0.18209892041633147,0.9792282819903548,0.6585552245500266,-0.0057180452340621045,0.0372879727101467,0.1904217250969771,junk
9722,-0.1867500082258367,0.986263779165399,0.6638334904091803,0.00608498191865083,0.04849917952986579,0.20558961491803135,junk
9733,-0.18636268214204174,0.9812989413227016,0.663374837677829,0.027206194830623285,0.05665280574242619,0.21886149521361084,junk
9744,-0.19023911778395702,0.9659909737217023,0.6594744097370373,0.047084966689996226,0.060729602150105554,0.22644540906034732,junk
9755,-0.18558802997445178,0.9581319573686542,0.6615383470281168,0.054539511226229284,0.060729602150105554,0.22834138752203145,junk
9767,-0.18364822475151138,0.9477888276103522,0.6617676733937922,0.05081223895811275,0.060729602150105554,0.23782131089424266,junk
9778,-0.18558802997445178,0.9407567194031188,0.6585552245500266,0.04025163250212652,0.0637872161544659,0.24919721272813805,junk
9789,-0.18481337780686183,0.9378591519249575,0.6519010004968196,0.026584974304323532,0.07092162656650564,0.24730123426645392,junk
9800,-0.17706050652303124,0.9424105356947476,0.6454761028092884,0.008569833490040648,0.08111363428430488,0.23213337550919033,junk
9811,-0.1650470483174559,0.9548209358175858,0.6411170221371454,-0.028702879013188215,0.09334405690454464,0.20748559337971548,junk
9823,-0.15768467792138582,0.9726096278560284,0.6344627980839387,-0.03429379250433121,0.08519044739058508,0.2169655167519267,junk
9834,-0.15342091619567555,0.9961900658829831,0.6255134306496682,-0.02186955500325492,0.06990241076598495,0.23213337550919033,junk
9845,-0.15419556836326548,0.975920649407097,0.6161054104840468,0.0017364993021709509,0.05461439083998568,0.24730123426645392,junk
9856,-0.16582170048504588,0.9271059570615591,0.6186298802307859,0.020372860642753586,0.04849917952986579,0.2643650714854016,junk
9867,-0.17744783260682623,0.9068331516178624,0.6257427570153437,0.01850921941972712,0.055633589941905516,0.27574097331929703,junk
9879,-0.17589852827164631,0.9320674059364457,0.6303330437774711,-0.003233193662672286,0.06480641525638575,0.27763695178098113,junk
9890,-0.1665963526526358,0.9709558115643996,0.6310210228744975,-0.024975606745071693,0.06786401256214528,0.26626104994708577,junk
9901,-0.1569100257537959,0.9808854872497943,0.6268912685680299,-0.0262180376197348,0.051556793534226146,0.21886149521361084,junk
9912,-0.15264626402808562,0.968061633054049,0.6202370445148232,-0.024975606745071693,0.039326370913986386,0.20179762693087247,junk
9923,-0.15419556836326548,0.9651640655758877,0.6211543499775253,-0.030566520236214683,0.03219196050194666,0.19800567000750421,junk
9934,-0.1584593300889758,0.9817123953956088,0.6280379003964074,-0.033672582155967856,0.03117276140002682,0.20938157184139958,junk
9946,-0.17163476654593607,0.9966035199558904,0.6408876957714698,-0.02683924796809815,0.0332111596038665,0.2302373970475062,junk
9957,-0.17163476654593607,0.9730230819289357,0.6418050012341718,-0.01503622081538522,0.03524955780770619,0.24730123426645392,junk
9968,-0.1654343744012509,0.9581319573686542,0.6411170221371454,-0.007581676279152166,0.0372879727101467,0.254885179176981,junk
9979,-0.16117061267554061,0.9672313359404239,0.6454761028092884,-0.011930158895632046,0.0372879727101467,0.24919721272813805,junk
9991,-0.16465972223366093,0.9924689792268181,0.6553427757062606,-0.02186955500325492,0.03423035870578634,0.24161329888140157,junk
10002,-0.17124744046214105,1.004465925276749,0.663374837677829,-0.028702879013188215,0.030153562298106982,0.22075747367529494,infinity
10013,-0.17589852827164631,0.9924689792268181,0.666587286521595,-0.02932408936155157,0.0332111596038665,0.2112775503030837,infinity
10024,-0.17900031174597164,0.9784013738445403,0.6679632447156478,-0.036157423549421266,0.039326370913986386,0.20748559337971548,infinity
10035,-0.1817115943325365,0.9705423574914923,0.6704877144623868,-0.053551354015340794,0.053595191738065824,0.20558961491803135,infinity
10047,-0.18248624650012643,0.9622698870655373,0.6858619795841887,-0.08026347024051983,0.08722884559442476,0.19231773462245186,infinity
10058,-0.1828735725839214,0.9883310495299351,0.6936628354657727,-0.11070285873381541,0.14124653158498301,0.16766995249297703,infinity
10069,-0.1782256595783817,1.0164628713266797,0.698711774959251,-0.13989980617451145,0.19832183157990166,0.13354224699129094,infinity
10080,-0.16776150570798626,1.033011201146401,0.6973339370408894,-0.1666119223996905,0.2421474931540598,0.10510250793844785,infinity
10092,-0.1569100257537959,1.0193570498370303,0.6913676920847092,-0.19332404880280593,0.268646736598379,0.08614266119402536,infinity
10103,-0.1491571544699653,1.0007414496527731,0.6798957346280085,-0.29147551793675314,0.3308180655000985,0.04253506338391865,infinity
10114,-0.13946765276715983,1.0036390171309344,0.6764539594185671,-0.3703694459155636,0.3878933153992146,0.004615400958864338,infinity
10126,-0.11854251983033451,1.0545209798410087,0.6762246330528917,-0.44429363003984873,0.4531222249080928,-0.029512335606612383,infinity
10137,-0.07552392609736786,1.2038660133235946,0.679666408262333,-0.49212694899906384,0.5163127362131313,-0.04278421590219187,infinity
10148,-0.06777105481353726,1.2208277972162227,0.6918282245403691,-0.5169754240012163,0.5856184922254913,-0.03899225897882366,infinity
10159,-0.06816155570129781,1.1935228835652925,0.6984824485935756,-0.5424451195296687,0.6773466451786888,-0.03520027099166478,infinity
10171,-0.06079601050126214,1.1620834291852902,0.6915970184503846,-0.5964905521504538,0.7925163774760424,-0.04657617282556014,infinity
10182,-0.027854244554895963,1.2166898675193398,0.678747223075322,-0.6946420823520195,0.9097245747716391,-0.08259985678893035,infinity
10193,0.0217520674065508,1.3412107117884386,0.669111756268334,-0.9077177000257243,1.0422207919932351,-0.2020467794491457,infinity
10204,0.08220985932218798,1.4897254481573996,0.663374837677829,-0.9344298162509035,1.0524127997110344,-0.26082226708030665,infinity
10216,0.14615358599197992,1.6361729141618242,0.6597037361027127,-0.8903237695598047,1.039163177988875,-0.3082218839413628,infinity
10227,0.19304861536686185,1.7391839797363156,0.6519010004968196,-0.7965208441099559,1.0167407476508359,-0.3423495894430489,infinity
10238,0.24381690557969357,1.8757017700553453,0.6287258794934338,-0.671657238394957,0.9963567155166366,-0.3556214697386284,infinity
10249,0.2678438219908442,1.9228626461092544,0.6250547779183172,-0.5213239167956326,0.9871838902021562,-0.3575174482003125,infinity
10261,0.30039826185341545,1.9212088298176255,0.6181712274994351,-0.3685058148704735,0.9922799024103564,-0.3632053835853649,infinity
10272,0.3426422034187921,1.92658712173323,0.6044041266616706,-0.24115734740614825,1.0085871381368763,-0.4011249838828379,infinity
10283,0.37790792586792815,1.9691966140173487,0.5862760654274541,-0.14549071966565447,1.0269327553686352,-0.48265227518178955,infinity
10295,0.40658910489254957,2.037867268765866,0.5672306987305361,0.06075163506573563,1.0452783892989947,-0.7234421610914857,infinity
10306,0.44262947950927567,2.121435826010286,0.5571346994678882,0.23655459112589372,1.0605664259235947,-0.8353052320325459,infinity
10317,0.4716948098137264,2.204587540213987,0.5559880676395108,0.4794484480121493,1.0952192788818735,-0.9509602288331838,infinity
10328,0.41860256309812494,1.9675394087579092,0.5633302707897438,0.7490544618353295,1.1665634664952749,-1.095054840431502,infinity
10340,0.4023253431668393,1.6572726277513354,0.5862760654274541,0.9372816045068819,1.32046291495299,-1.2543174350422464,infinity
10351,0.4313906734712901,1.4272599934703016,0.5862760654274541,0.959645238115581,1.5783208220939369,-1.3699724007790932,infinity
10362,0.513938751379103,1.3407972577155314,0.5399258234206826,0.8478270802500216,1.8759277279901687,-1.4003081493574114,infinity
10373,0.625164833507572,1.3767880958653242,0.47682535809805643,0.7024635635728411,2.1205361302991617,-1.364284465394041,infinity
10385,0.7201136957047553,1.5025493023531449,0.430473236366976,0.6788575194453518,2.324376601928562,-1.2619013799527736,infinity
10396,0.8104146448963987,1.664718190031476,0.41372301305112136,0.9174028224695725,2.303992569794363,-1.3320527383540393,infinity
10407,0.9150530087963876,1.788825580227668,0.40546350443818624,1.3019330866118746,2.2112452177392456,-1.5538828085831033,infinity
10418,0.984812976331035,1.7313215744154569,0.37402699509755627,1.7429934110317507,2.0583648347946437,-1.9463514684481793,infinity
10430,1.0735614463835332,1.168288629246709,0.21042331015549373,2.1300084453219514,1.8851005366060483,-2.435514905603983,infinity
10441,1.077434707221483,0.8766340594565816,0.14135659987668728,2.389675042681636,1.719989864630013,-2.8886549383705318,infinity
10453,1.0638719446807279,0.5307865054053112,0.11198590755144568,2.511432576298945,1.576282423890097,-3.2052841491303368,infinity
