timestamp,ax,ay,az,gx,gy,gz
81,0.140747,-0.207275,0.955444,-0.061035,-1.037598,-3.173828
93,0.138306,-0.210083,0.963989,1.159668,-1.831055,-3.051758
104,0.132080,-0.216309,0.974731,2.990722,-2.746582,-2.441406
115,0.126099,-0.222778,0.976318,2.441406,-1.831055,-2.563476
126,0.124390,-0.226685,0.972046,1.525879,-0.732422,-2.624511
138,0.125244,-0.228394,0.972168,0.488281,0.183105,-2.441406
149,0.131226,-0.226562,0.979370,-0.915527,0.732422,-2.075195
160,0.134644,-0.217896,0.981201,-2.441406,0.854492,-1.647949
171,0.136108,-0.206177,0.980469,-3.295898,0.610352,-1.464844
182,0.136841,-0.197632,0.977417,-2.685547,0.122070,-1.525879
194,0.137695,-0.196533,0.974487,-1.098633,-0.305176,-1.647949
205,0.137695,-0.200317,0.972656,1.037598,-0.671387,-2.624511
216,0.135742,-0.207275,0.970093,0.915527,-0.732422,-3.295898
227,0.133545,-0.215088,0.966675,0.610352,-1.098633,-3.662109
238,0.132812,-0.218018,0.964844,0.427246,-1.708984,-3.601074
250,0.131958,-0.214233,0.969482,0.305176,-2.258301,-3.417969
261,0.127686,-0.218018,0.973022,0.183105,-2.502441,-3.051758
272,0.124756,-0.222046,0.973633,-0.061035,-2.380371,-2.624511
283,0.123657,-0.220215,0.972656,-0.671387,-2.319336,-2.319336
294,0.122559,-0.215454,0.972412,-1.525879,-2.624511,-2.380371
306,0.122314,-0.213623,0.972168,-2.502441,-4.028320,-2.868652
317,0.122803,-0.212646,0.973511,-2.319336,-4.760742,-2.990722
328,0.121582,-0.212280,0.976196,-2.075195,-5.065917,-2.990722
339,0.118042,-0.213379,0.977295,-1.831055,-5.065917,-2.868652
350,0.110962,-0.211304,0.979004,-1.708984,-4.943848,-2.685547
362,0.108032,-0.209351,0.983643,-1.403808,-4.821777,-2.380371
373,0.103638,-0.208008,0.989990,-1.037598,-4.455566,-1.831055
384,0.098877,-0.208984,0.991577,-0.854492,-3.417969,-1.342773
395,0.096924,-0.211792,0.988159,-0.793457,-2.197266,-1.403808
406,0.097900,-0.214111,0.986816,-0.366211,-1.098633,-2.258301
418,0.099365,-0.213379,0.989258,-0.305176,-1.037598,-2.441406
429,0.098877,-0.208740,0.991821,0.061035,-1.098633,-2.380371
440,0.098389,-0.203613,0.993286,0.854492,-1.159668,-2.197266
451,0.098022,-0.201172,0.997803,1.770019,-0.854492,-2.014160
462,0.097412,-0.201416,0.997437,2.258301,0.122070,-1.892090
474,0.097778,-0.201294,0.993408,2.258301,1.586914,-1.953125
485,0.099609,-0.200928,0.987061,2.197266,2.746582,-2.197266
496,0.101685,-0.201172,0.982056,2.197266,3.234863,-2.624511
507,0.102905,-0.203003,0.980713,1.831055,2.563476,-3.173828
518,0.103271,-0.203491,0.981445,1.525879,2.197266,-3.295898
530,0.103516,-0.203735,0.981567,1.525879,2.136230,-3.295898
541,0.104492,-0.206909,0.980591,1.647949,2.319336,-3.234863
552,0.105103,-0.214844,0.977783,1.525879,2.624511,-3.112793
563,0.106445,-0.215698,0.976440,1.098633,2.807617,-2.990722
574,0.108032,-0.214111,0.976074,0.793457,2.807617,-2.929687
586,0.108643,-0.212402,0.978149,0.671387,2.502441,-2.868652
597,0.108765,-0.212402,0.980103,0.671387,2.136230,-2.746582
608,0.109619,-0.213379,0.980835,1.037598,1.831055,-2.502441
619,0.110352,-0.214722,0.980713,1.342773,1.708984,-2.319336
630,0.109741,-0.215698,0.980103,1.464844,1.647949,-2.136230
642,0.109619,-0.216675,0.979248,1.342773,1.708984,-2.014160
653,0.108765,-0.224243,0.979736,0.915527,1.770019,-1.831055
664,0.108521,-0.226196,0.979980,0.244141,2.014160,-1.586914
675,0.109253,-0.226074,0.977661,-0.488281,2.502441,-1.464844
686,0.111572,-0.224243,0.974609,-0.976562,3.112793,-1.342773
697,0.114990,-0.221924,0.972656,-1.037598,3.417969,-1.281738
709,0.118408,-0.219727,0.971924,-0.488281,3.173828,-1.037598
720,0.122070,-0.217285,0.972412,0.000000,2.563476,-0.915527
731,0.124390,-0.215820,0.973145,0.610352,1.953125,-0.793457
742,0.125488,-0.215454,0.974121,1.098633,1.647949,-0.732422
753,0.124756,-0.216064,0.973633,1.342773,1.953125,-0.549316
765,0.124756,-0.219971,0.971558,1.281738,2.624511,-0.488281
776,0.126587,-0.223022,0.970459,0.915527,3.295898,-0.366211
787,0.128662,-0.222412,0.971802,0.305176,3.540039,-0.305176
798,0.131226,-0.219849,0.973755,-0.488281,3.479004,-0.183105
809,0.135376,-0.215088,0.974487,-2.136230,3.112793,-0.244141
821,0.139526,-0.207642,0.973877,-2.197266,2.746582,-0.244141
832,0.140869,-0.203003,0.972534,-1.525879,2.380371,-0.305176
843,0.139771,-0.203735,0.971680,-0.488281,2.014160,-0.305176
854,0.137329,-0.208252,0.972412,0.305176,1.770019,0.000000
865,0.134888,-0.207397,0.972168,0.793457,1.953125,0.366211
876,0.133057,-0.205811,0.971436,1.098633,2.502441,0.549316
888,0.134155,-0.203247,0.972900,1.464844,2.990722,0.427246
899,0.137451,-0.201904,0.976196,1.647949,3.112793,0.122070
910,0.139893,-0.204590,0.978271,0.488281,3.173828,-0.549316
921,0.140991,-0.207153,0.976807,-0.793457,3.601074,-0.671387
932,0.141846,-0.204712,0.972778,-1.647949,4.150391,-0.732422
944,0.143311,-0.197266,0.968384,-1.464844,4.455566,-0.671387
955,0.147705,-0.193237,0.964233,-0.366211,4.150391,-0.671387
966,0.148926,-0.199585,0.964111,0.732422,3.601074,-0.671387
977,0.149414,-0.204834,0.963257,1.159668,3.234863,-0.793457
988,0.148315,-0.208008,0.961914,0.854492,3.112793,-0.854492
1000,0.147095,-0.207764,0.961304,0.183105,2.990722,-0.732422
1011,0.146118,-0.205078,0.962280,-0.549316,2.746582,-0.427246
1022,0.144897,-0.201904,0.965210,-0.427246,2.746582,-0.427246
1033,0.143066,-0.199585,0.967651,-0.183105,2.807617,-0.610352
1044,0.139160,-0.201294,0.965454,-0.122070,3.051758,-0.854492
1056,0.138794,-0.201294,0.964844,-0.366211,3.479004,-0.854492
1067,0.140137,-0.200806,0.965698,-0.854492,3.967285,-0.793457
1078,0.141602,-0.201416,0.965942,-1.159668,4.333496,-0.732422
1089,0.143066,-0.202393,0.964478,-1.220703,4.577637,-0.732422
1100,0.145142,-0.201294,0.961914,-1.159668,4.577637,-0.915527
1112,0.148071,-0.198364,0.956787,-0.244141,4.760742,-1.342773
1123,0.153076,-0.195801,0.948975,0.366211,5.187988,-1.525879
1134,0.159302,-0.193359,0.942749,0.793457,5.371093,-1.770019
1145,0.167480,-0.190186,0.943115,0.854492,5.004883,-2.197266
1156,0.172485,-0.188477,0.945923,0.671387,4.394531,-2.746582
1168,0.177734,-0.186890,0.947510,0.305176,3.906250,-3.295898
1179,0.181885,-0.188599,0.947876,-0.244141,3.662109,-3.784179
1190,0.185425,-0.193604,0.948975,-1.037598,3.723144,-4.333496
1201,0.188599,-0.198975,0.951294,-2.136230,3.845215,-4.943848
1213,0.190186,-0.202515,0.954590,-3.784179,2.868652,-5.859375
1224,0.188965,-0.205322,0.959717,-3.479004,1.647949,-6.347656
1235,0.185791,-0.208862,0.966431,-3.173828,0.366211,-6.652832
1246,0.179321,-0.210205,0.976685,-3.173828,-0.366211,-6.591796
1258,0.177734,-0.209351,0.977661,-2.502441,-0.427246,-6.103515
1269,0.178101,-0.212158,0.979004,-0.732422,-0.061035,-5.554199
1280,0.179932,-0.217651,0.981323,1.098633,0.183105,-5.065917
1291,0.183472,-0.222656,0.982910,2.075195,0.183105,-4.760742
1303,0.187256,-0.226685,0.983398,0.732422,-0.305176,-4.455566
1314,0.189697,-0.228516,0.981201,-1.098633,-0.488281,-4.272461
1325,0.190918,-0.224854,0.977539,-2.624511,-0.549316,-3.723144
1336,0.191162,-0.218262,0.976318,-3.173828,-0.671387,-3.173828
1348,0.191650,-0.212402,0.981689,-2.929687,-0.915527,-2.746582
1359,0.190552,-0.213989,0.986328,-2.258301,-1.281738,-2.441406
1370,0.187134,-0.217529,0.990723,-1.647949,-1.586914,-2.075195
1381,0.182739,-0.222046,0.995117,-1.220703,-1.892090,-1.464844
1393,0.177734,-0.224854,0.998169,-1.342773,-1.708984,-0.671387
1404,0.173096,-0.223145,0.999634,-2.746582,0.061035,0.793457
1415,0.171021,-0.217529,1.000488,-3.112793,0.915527,1.220703
1426,0.170654,-0.210571,1.000854,-2.807617,1.647949,1.525879
1437,0.168091,-0.200928,1.000244,-2.075195,2.197266,1.708984
1449,0.163696,-0.201904,0.997681,-1.281738,2.746582,1.770019
1460,0.159912,-0.203735,0.993408,-0.793457,3.479004,1.770019
1471,0.157593,-0.202637,0.989014,-0.732422,4.272461,1.831055
1482,0.156250,-0.199341,0.986328,-0.976562,4.882812,1.892090
1494,0.155762,-0.194336,0.984863,-1.281738,5.798339,2.014160
1505,0.155884,-0.189087,0.983032,-1.220703,6.347656,1.953125
1516,0.156494,-0.185913,0.980469,-0.976562,6.835937,1.708984
1527,0.158569,-0.183594,0.977295,-0.671387,7.019042,1.281738
1538,0.163574,-0.181396,0.968628,-0.427246,6.774902,0.854492
1550,0.166382,-0.182373,0.963989,-0.610352,6.164550,0.488281
1561,0.168701,-0.181885,0.959717,-1.037598,5.615234,0.305176
1572,0.170898,-0.177979,0.955200,-1.586914,5.187988,0.122070
1583,0.172974,-0.172119,0.951172,-1.708984,4.821777,-0.061035
1594,0.174072,-0.168945,0.948242,-0.305176,3.601074,-0.854492
1606,0.174438,-0.170776,0.946899,0.244141,2.746582,-1.464844
1617,0.174072,-0.175293,0.948242,0.000000,1.647949,-1.953125
1628,0.172729,-0.179321,0.953979,-1.220703,0.610352,-2.319336
1639,0.169922,-0.176514,0.970337,-3.051758,-0.122070,-2.441406
1650,0.167114,-0.171753,0.976562,-4.577637,-0.549316,-2.502441
1662,0.163940,-0.167969,0.980713,-5.004883,-0.854492,-2.502441
1673,0.163330,-0.167847,0.983765,-4.333496,-1.098633,-2.624511
1684,0.163452,-0.171875,0.987061,-3.356933,-1.281738,-2.746582
1695,0.161377,-0.177979,0.992065,-3.234863,-0.915527,-2.685547
1707,0.157593,-0.183594,0.999146,-3.967285,-0.122070,-2.380371
1718,0.153809,-0.185425,1.004150,-4.638672,0.976562,-2.136230
1729,0.151978,-0.184326,1.004517,-4.943848,2.075195,-1.953125
1740,0.153198,-0.182495,0.996216,-4.882812,2.929687,-1.892090
1752,0.155762,-0.180542,0.988159,-4.455566,3.417969,-1.831055
1763,0.160278,-0.178467,0.979736,-3.784179,3.723144,-1.647949
1774,0.164062,-0.176880,0.973145,-3.051758,3.662109,-1.464844
1785,0.165405,-0.174927,0.970215,-2.258301,2.929687,-1.342773
1796,0.164429,-0.178223,0.970459,-2.563476,0.732422,-1.708984
1808,0.162842,-0.184692,0.970581,-4.211426,0.366211,-2.197266
1819,0.162109,-0.186401,0.969238,-6.042480,0.427246,-2.380371
1830,0.159302,-0.180542,0.964966,-7.019042,0.427246,-2.197266
1841,0.158813,-0.178589,0.964478,-7.141113,0.366211,-1.831055
1853,0.160400,-0.175781,0.964478,-6.591796,0.183105,-1.586914
1864,0.163330,-0.171265,0.964233,-5.676269,-0.061035,-1.464844
1875,0.166382,-0.167480,0.963867,-4.211426,-0.427246,-1.281738
1886,0.167969,-0.167603,0.962646,-0.976562,-1.342773,-0.793457
1898,0.167114,-0.169312,0.961182,0.122070,-1.647949,-0.549316
1909,0.164429,-0.172241,0.961914,0.488281,-1.708984,-0.366211
1920,0.160400,-0.177979,0.964355,-0.305176,-1.281738,-0.244141
1931,0.157715,-0.181641,0.964722,-1.892090,-0.366211,-0.366211
1943,0.160767,-0.173584,0.964722,-3.417969,0.366211,-0.427246
1954,0.164185,-0.164795,0.966309,-4.028320,0.427246,-0.427246
1965,0.164429,-0.160645,0.970825,-3.417969,-0.305176,-0.488281
1976,0.159790,-0.161987,0.976562,-2.075195,-1.464844,-0.610352
1987,0.151489,-0.167603,0.979736,0.183105,-2.319336,-0.854492
1999,0.142212,-0.174927,0.978394,0.549316,-1.708984,-0.610352
2010,0.134644,-0.180176,0.974854,0.427246,-0.915527,-0.183105
2021,0.131714,-0.181519,0.973389,0.000000,-0.305176,0.244141
2032,0.139160,-0.173462,0.973267,-0.488281,-0.061035,0.610352
2044,0.141968,-0.166870,0.972168,-0.793457,-0.061035,0.915527
2055,0.140503,-0.163696,0.971924,-0.976562,-0.427246,1.037598
2066,0.137573,-0.161377,0.972168,-1.159668,-0.976562,1.098633
2077,0.136475,-0.156738,0.972168,-1.464844,-1.586914,1.220703
2088,0.136597,-0.150635,0.972656,-1.281738,-2.563476,1.892090
2100,0.136963,-0.145752,0.974243,-0.671387,-3.173828,2.197266
2111,0.136841,-0.142334,0.977417,-0.183105,-3.723144,2.380371
2122,0.133423,-0.139893,0.986084,0.000000,-3.784179,2.563476
2133,0.131104,-0.141724,0.986694,0.061035,-3.112793,2.563476
2145,0.130371,-0.143677,0.984131,-0.183105,-1.953125,2.380371
2156,0.131836,-0.143555,0.980713,-0.549316,-0.854492,2.014160
2167,0.134399,-0.141113,0.979004,-0.915527,-0.061035,1.647949
2178,0.137695,-0.137085,0.978394,-0.793457,0.061035,1.037598
2189,0.139160,-0.135498,0.978149,-0.183105,-0.366211,0.549316
2201,0.137207,-0.139038,0.977173,0.366211,-0.549316,-0.122070
2212,0.133545,-0.146729,0.975342,0.183105,-0.183105,-0.915527
2223,0.130249,-0.159912,0.967529,-0.732422,0.671387,-1.647949
2234,0.130127,-0.158569,0.963989,-1.770019,1.647949,-2.014160
2245,0.130859,-0.156006,0.962158,-2.014160,2.441406,-1.953125
2257,0.131348,-0.154419,0.960938,-1.403808,2.746582,-1.770019
2268,0.132446,-0.152588,0.961060,-0.122070,2.624511,-1.708984
2279,0.133789,-0.151001,0.960938,3.173828,1.281738,-2.014160
2290,0.135620,-0.152588,0.960205,4.333496,0.366211,-2.319336
2302,0.138672,-0.154663,0.961548,4.943848,-0.610352,-2.380371
2313,0.141235,-0.153687,0.966064,5.310058,-1.464844,-2.319336
2324,0.143433,-0.144897,0.975220,5.920410,-1.953125,-2.258301
2335,0.146118,-0.143066,0.976074,6.713867,-1.953125,-2.380371
2347,0.148193,-0.143921,0.974609,7.324218,-1.586914,-2.746582
2358,0.150146,-0.147339,0.972168,7.568359,-0.915527,-3.234863
2369,0.152344,-0.151489,0.970459,7.629394,-0.061035,-3.662109
2380,0.154907,-0.154419,0.971191,7.446289,1.647949,-4.150391
2391,0.157349,-0.155640,0.973999,7.019042,2.258301,-4.516602
2403,0.160278,-0.155029,0.976196,6.469726,2.624511,-5.004883
2414,0.163452,-0.154785,0.975708,6.103515,2.868652,-5.554199
2425,0.166504,-0.162964,0.972168,5.981445,3.051758,-5.981445
2436,0.168945,-0.169189,0.970337,5.981445,3.540039,-6.164550
2448,0.173584,-0.175537,0.968628,6.225585,4.699707,-5.920410
2459,0.180054,-0.181396,0.968018,6.408691,6.164550,-5.615234
2470,0.186035,-0.186646,0.970581,6.286621,7.202148,-5.615234
2481,0.188354,-0.190308,0.973389,5.432128,7.019042,-6.225585
2492,0.187622,-0.192993,0.975098,5.554199,6.042480,-6.408691
2504,0.185913,-0.196655,0.976318,5.859375,4.882812,-6.225585
2515,0.180054,-0.208496,0.979248,6.164550,3.845215,-5.981445
2526,0.176636,-0.213989,0.980957,6.469726,2.868652,-5.737304
2537,0.172119,-0.217285,0.982788,7.080078,2.014160,-5.310058
2549,0.167725,-0.219238,0.982422,7.690429,1.525879,-4.882812
2560,0.166504,-0.221924,0.981567,7.873535,1.464844,-4.455566
2571,0.167603,-0.225464,0.982056,5.920410,2.563476,-3.601074
2582,0.170776,-0.223755,0.983765,3.784179,3.356933,-3.112793
2593,0.174194,-0.211182,0.984619,2.380371,4.089355,-2.868652
2605,0.175537,-0.195068,0.980835,3.173828,4.394531,-2.685547
2616,0.175537,-0.192749,0.968628,5.737304,3.967285,-2.624511
2627,0.174805,-0.208008,0.968140,8.300781,3.417969,-2.502441
2638,0.174438,-0.224243,0.969238,9.216309,3.356933,-2.380371
2649,0.174194,-0.230957,0.973145,8.300781,3.723144,-2.075195
2661,0.174072,-0.226318,0.979126,6.347656,4.394531,-1.403808
2672,0.174072,-0.216919,0.985596,3.601074,4.821777,0.122070
2683,0.171265,-0.205566,0.989380,3.784179,4.821777,0.366211
2694,0.167236,-0.200073,0.985596,5.065917,5.493164,0.244141
2706,0.166382,-0.207764,0.983032,6.469726,6.958007,0.610352
2717,0.169922,-0.215210,0.989014,7.141113,9.277344,1.586914
2728,0.171875,-0.201538,0.987793,8.056641,11.596679,2.563476
2739,0.171021,-0.192505,0.986328,9.765625,13.061522,3.234863
2751,0.170898,-0.191895,0.975464,11.535644,14.282226,3.540039
2762,0.173950,-0.196289,0.956787,13.793944,15.991210,3.417969
2773,0.179443,-0.205811,0.940308,18.920898,19.531250,2.990722
2784,0.187988,-0.213989,0.929321,18.981934,20.385740,2.807617
2796,0.201294,-0.220703,0.924072,16.784668,20.263670,3.051758
2807,0.237793,-0.216309,0.921509,14.648437,18.981934,3.723144
2818,0.245483,-0.218384,0.905273,15.441894,16.540527,4.028320
2829,0.244995,-0.229248,0.888428,18.554688,12.207030,3.540039
2841,0.238892,-0.243408,0.883423,19.714355,6.347656,2.624511
2852,0.228882,-0.248901,0.881226,17.028809,1.037598,1.953125
2863,0.218750,-0.242065,0.880737,12.207030,-5.798339,0.061035
2874,0.211792,-0.242676,0.890625,12.756347,-8.056641,-1.831055
2886,0.210449,-0.254028,0.911011,12.878417,-9.277344,-3.356933
2897,0.212646,-0.260742,0.932373,11.718749,-9.521484,-4.455566
2908,0.205933,-0.243652,0.959473,10.009766,-9.277344,-5.249023
2919,0.199829,-0.245117,0.967285,8.666992,-8.789062,-6.042480
2931,0.197021,-0.252075,0.977173,6.713867,-8.056641,-6.774902
2942,0.200073,-0.251587,0.984863,2.929687,-6.774902,-7.385253
2953,0.203735,-0.240845,0.981689,-1.037598,-5.065917,-7.873535
2964,0.203979,-0.228271,0.972778,-1.220703,-2.563476,-8.178711
2976,0.200928,-0.224854,0.973389,1.281738,-1.647949,-8.056641
2987,0.194824,-0.228027,0.987183,3.356933,0.305176,-8.300781
2998,0.198730,-0.234863,1.011841,4.394531,3.417969,-9.094238
3009,0.203979,-0.232422,1.002197,4.577637,6.530761,-10.498046
3021,0.208252,-0.234741,0.984985,3.967285,8.178711,-12.817382
3032,0.211548,-0.237183,0.974854,1.586914,7.934570,-15.258788
3043,0.209229,-0.230103,0.967773,-2.319336,6.896972,-16.540527
3054,0.203125,-0.215454,0.961426,-7.019042,7.202148,-15.441894
3066,0.198486,-0.211060,0.964355,-6.530761,8.422852,-14.221190
3077,0.199585,-0.225342,0.976440,-5.554199,10.009766,-13.061522
3088,0.204956,-0.241699,0.990601,-5.065917,11.718749,-12.145995
3099,0.218140,-0.252319,0.996826,-5.126953,12.817382,-11.962890
3111,0.225220,-0.242798,0.980469,-5.187988,12.512206,-12.390136
3122,0.231812,-0.231323,0.958008,-4.577637,10.803222,-13.427733
3133,0.234741,-0.222778,0.949219,-3.112793,8.178711,-14.648437
3144,0.239868,-0.218750,0.955811,-0.427246,5.920410,-15.441894
3156,0.253052,-0.225708,0.959839,6.713867,5.554199,-15.136718
3167,0.269287,-0.241699,0.951416,9.460449,5.371093,-14.160155
3178,0.281616,-0.257080,0.934082,9.460449,3.540039,-13.000487
3190,0.281860,-0.278198,0.932129,5.859375,0.732422,-11.840819
3201,0.277222,-0.269043,0.942749,0.854492,-0.976562,-10.009766
3212,0.273682,-0.263672,0.940674,-2.075195,-1.464844,-6.835937
3223,0.268677,-0.274414,0.932251,-1.953125,-2.746582,-2.807617
3235,0.262695,-0.283691,0.923218,-1.220703,-5.676269,0.915527
3246,0.256836,-0.282471,0.916748,-4.943848,-10.925292,4.455566
3257,0.248535,-0.277466,0.916748,-8.789062,-12.390136,4.089355
3268,0.238281,-0.270630,0.920654,-12.573241,-13.732909,2.380371
3280,0.232178,-0.259888,0.931396,-15.380858,-14.465331,-0.061035
3291,0.233521,-0.223633,0.952759,-16.296387,-14.038085,-1.892090
3302,0.231934,-0.209229,0.957642,-15.197753,-13.183593,-2.868652
3314,0.223145,-0.211426,0.968750,-12.756347,-13.000487,-3.234863
3325,0.206543,-0.227905,0.981323,-10.681151,-13.366698,-3.479004
3336,0.192749,-0.237427,0.985474,-14.404296,-14.465331,-4.638672
3348,0.188110,-0.232910,0.986328,-18.981934,-15.502929,-5.187988
3359,0.186890,-0.223022,0.989380,-22.338865,-16.601562,-5.432128
3370,0.185181,-0.215210,0.987305,-24.047850,-17.761230,-5.615234
3382,0.185059,-0.206787,0.971680,-25.024412,-19.714355,-6.225585
3393,0.179810,-0.204834,0.969849,-25.268553,-23.254393,-7.568359
3404,0.169556,-0.199829,0.977051,-24.230955,-28.015135,-9.155273
3416,0.158691,-0.205078,0.993530,-22.155760,-32.409668,-10.070800
3427,0.148926,-0.222168,1.003662,-15.624999,-34.606934,-6.286621
3438,0.139282,-0.236572,0.997559,-12.634276,-33.935547,-1.831055
3450,0.128296,-0.246094,0.991333,-11.413573,-34.301758,1.770019
3461,0.100952,-0.246094,1.015991,-10.864257,-35.461426,2.624511
3472,0.100952,-0.236206,1.023804,-10.559081,-35.705566,0.976562
3484,0.100342,-0.219727,1.026123,-10.498046,-34.118652,-1.525879
3495,0.095703,-0.197876,1.028076,-9.216309,-30.761717,-3.479004
3506,0.095215,-0.182495,1.030396,-5.676269,-26.062010,-4.638672
3518,0.098755,-0.181763,1.028442,7.507324,-16.967773,-6.408691
3529,0.107056,-0.188354,1.018555,13.488769,-13.732909,-7.202148
3540,0.119385,-0.196655,1.006470,15.991210,-11.474608,-7.446289
3551,0.129028,-0.211914,0.995972,14.404296,-9.582520,-7.873535
3563,0.145996,-0.228027,0.971802,9.338379,-7.873535,-8.605957
3574,0.149902,-0.214966,0.961548,2.319336,-6.286621,-8.911133
3585,0.154297,-0.200806,0.948975,-4.577637,-4.638672,-8.544922
3597,0.159058,-0.196777,0.936035,-9.887695,-3.112793,-7.690429
3608,0.161255,-0.192505,0.925293,-13.000487,-1.831055,-6.713867
3619,0.165039,-0.181396,0.915283,-14.038085,0.183105,-5.981445
3630,0.170898,-0.170288,0.908813,-13.366698,-0.183105,-5.920410
3642,0.172974,-0.165161,0.909546,-12.573241,-1.342773,-5.798339
3653,0.163574,-0.162476,0.925537,-10.498046,-2.868652,-5.859375
3664,0.155762,-0.157349,0.936157,-6.225585,-4.516602,-6.286621
3676,0.149536,-0.157715,0.941162,-0.793457,-6.774902,-7.263183
3687,0.146118,-0.169922,0.944336,4.577637,-10.253905,-8.972168
3698,0.140869,-0.191528,0.950195,8.850098,-14.648437,-11.352538
3709,0.134033,-0.215088,0.954956,6.347656,-20.446775,-16.052246
3721,0.126709,-0.229126,0.947021,-2.319336,-20.996092,-17.272949
3732,0.119385,-0.224243,0.927490,-13.000487,-21.911619,-17.883301
3744,0.099365,-0.184082,0.913574,-23.437498,-23.986814,-18.432617
3755,0.084595,-0.150024,0.924316,-32.836914,-26.550291,-19.348145
3766,0.071167,-0.101685,0.941040,-38.085938,-29.235838,-20.812986
3778,0.056519,-0.056274,0.961548,-35.217285,-32.287598,-22.644041
3789,0.041138,-0.036865,0.982788,-4.394531,-37.902832,-22.583006
3801,0.023804,-0.049561,1.005859,15.014647,-37.597656,-20.141600
3812,-0.000854,-0.094360,1.024536,29.846189,-34.484863,-17.517090
3823,-0.023804,-0.155029,1.026733,36.010742,-30.090330,-15.991210
3835,-0.046753,-0.228149,1.005737,32.592773,-25.695799,-15.869140
3846,-0.057617,-0.218384,1.009155,22.705076,-21.301268,-16.418457
3858,-0.065308,-0.187744,1.019043,12.207030,-16.540527,-16.845703
3869,-0.065918,-0.159668,1.021606,5.432128,-11.657714,-16.723633
3880,-0.061279,-0.141479,1.012695,4.516602,-5.065917,-14.831542
3891,-0.054199,-0.130737,0.995361,6.713867,-4.516602,-13.610839
3903,-0.047607,-0.129395,0.972534,7.263183,-5.493164,-12.817382
3914,-0.046631,-0.135376,0.957153,6.286621,-7.202148,-12.939452
3925,-0.050171,-0.176392,0.957275,5.187988,-8.605957,-13.305663
3936,-0.051514,-0.202026,0.952148,4.699707,-8.666992,-13.000487
3948,-0.052124,-0.221313,0.940430,4.455566,-7.934570,-11.718749
3959,-0.041626,-0.217773,0.947388,3.479004,-7.141113,-10.192870
3970,-0.023315,-0.206299,0.958252,1.342773,-5.371093,-9.887695
3981,-0.003662,-0.197388,0.961670,0.366211,-2.624511,-10.253905
3993,0.015625,-0.182617,0.970215,2.685547,-5.310058,-7.263183
4004,0.023193,-0.169556,0.983398,6.164550,-9.399414,-3.295898
4015,0.006104,-0.177124,1.022705,10.620116,-12.817382,-0.122070
4026,0.000488,-0.189209,1.022095,14.343261,-13.916015,1.953125
4037,0.006226,-0.200806,1.006958,14.587401,-13.000487,3.601074
4049,0.018311,-0.196411,0.995605,10.620116,-11.535644,4.455566
4060,0.032715,-0.185303,0.987793,4.699707,-9.338379,3.295898
4071,0.046265,-0.177246,0.982422,-1.953125,-2.807617,-1.403808
4082,0.055176,-0.174805,0.984009,0.549316,0.122070,-2.624511
4094,0.059326,-0.185913,0.979492,5.187988,2.014160,-2.868652
4105,0.060547,-0.201904,0.969849,9.399414,2.380371,-2.685547
4116,0.052124,-0.223999,0.961548,10.559081,1.098633,-1.953125
4127,0.048828,-0.226807,0.962036,7.446289,-1.953125,0.000000
4138,0.045776,-0.235352,0.969116,1.098633,-6.225585,2.624511
4150,0.043213,-0.247559,0.972900,-6.774902,-9.887695,5.187988
4161,0.043945,-0.230591,0.977051,-13.427733,-11.169433,6.896972
4172,0.045044,-0.187500,0.988403,-9.155273,-5.920410,7.019042
4183,0.042969,-0.169434,0.989380,-0.427246,-2.258301,6.347656
4195,0.039673,-0.187378,0.975952,7.263183,-0.366211,5.615234
4206,0.036865,-0.210327,0.970459,12.145995,0.122070,5.004883
4217,0.024170,-0.239868,0.973267,13.854980,0.366211,4.272461
4228,0.016235,-0.239624,0.969849,11.718749,0.427246,2.929687
4240,0.006836,-0.226685,0.964966,4.760742,-0.732422,1.037598
4251,-0.002441,-0.201782,0.973389,-4.455566,-3.723144,-0.305176
4262,-0.011597,-0.185669,0.992554,-10.803222,-7.385253,-0.549316
4273,-0.021973,-0.188599,1.002441,-7.263183,-11.596679,-0.122070
4285,-0.030151,-0.194336,1.001953,-1.953125,-12.145995,-0.671387
4296,-0.036011,-0.201050,1.002319,1.220703,-12.023925,-1.281738
4307,-0.047363,-0.224365,1.009766,1.525879,-10.803222,-1.342773
4318,-0.050293,-0.223999,1.012939,0.610352,-8.422852,-1.037598
4330,-0.052002,-0.205078,1.014648,0.305176,-5.065917,-1.342773
4341,-0.054077,-0.184326,1.015625,1.098633,-1.831055,-2.075195
4352,-0.058716,-0.179688,1.017822,2.258301,-0.061035,-1.953125
4363,-0.063721,-0.189331,1.022827,4.272461,-1.281738,1.281738
4375,-0.066528,-0.200317,1.025513,5.249023,-1.892090,1.770019
4386,-0.067139,-0.205933,1.024170,5.981445,-0.915527,0.732422
4397,-0.065796,-0.203613,1.026245,6.286621,1.586914,-0.854492
4408,-0.061157,-0.217041,1.021973,6.164550,4.333496,-1.647949
4420,-0.056396,-0.222534,1.018555,6.042480,6.347656,-1.525879
4431,-0.052979,-0.215942,1.012695,5.798339,7.629394,-1.159668
4442,-0.049927,-0.204712,1.005615,5.187988,8.239746,-0.793457
4453,-0.047485,-0.204834,1.002197,4.272461,8.056641,-0.671387
4464,-0.045166,-0.207764,1.005249,2.075195,7.934570,-0.854492
4476,-0.041016,-0.201050,1.011108,2.136230,8.239746,-1.037598
4487,-0.035889,-0.194702,1.012451,2.807617,7.690429,-1.281738
4498,-0.030884,-0.194824,1.009521,2.563476,5.920410,-1.953125
4509,-0.030151,-0.227783,1.011230,-0.244141,3.906250,-2.868652
4521,-0.030273,-0.233032,1.015747,-5.126953,2.746582,-3.662109
4532,-0.031738,-0.221313,1.014893,-10.375976,2.990722,-4.089355
4543,-0.034302,-0.203125,1.012573,-14.648437,3.906250,-3.845215
4554,-0.033569,-0.185547,1.013306,-16.601562,5.126953,-2.807617
4566,-0.032104,-0.176636,1.010010,-13.061522,7.507324,-0.305176
4577,-0.034912,-0.175903,1.001831,-10.559081,7.812500,0.183105
4588,-0.036621,-0.182739,0.991943,-10.437011,8.300781,0.000000
4599,-0.034058,-0.198730,0.976196,-13.916015,9.521484,-0.305176
4611,-0.028198,-0.189453,0.968994,-19.470215,11.413573,-0.366211
4622,-0.019409,-0.172729,0.961914,-24.475096,13.183593,-0.427246
4633,-0.014404,-0.153687,0.958252,-26.611326,13.977050,-0.244141
4644,-0.012573,-0.135132,0.958496,-24.353025,13.732909,0.549316
4656,-0.011108,-0.126831,0.953735,-12.573241,10.742187,2.319336
4667,-0.010986,-0.137207,0.943481,-9.094238,7.934570,2.075195
4678,-0.009888,-0.154907,0.937988,-9.155273,5.432128,1.281738
4689,-0.005981,-0.161743,0.944214,-12.268065,4.150391,0.366211
4701,-0.005005,-0.157959,0.949463,-16.906738,3.784179,-0.671387
4712,-0.003052,-0.154419,0.953369,-22.216795,3.845215,-1.831055
4723,0.000488,-0.145508,0.957031,-27.404783,3.967285,-2.990722
4734,0.001221,-0.130859,0.960083,-31.066893,3.967285,-3.662109
4746,0.000122,-0.111572,0.963135,-29.113768,3.479004,-3.112793
4757,-0.001587,-0.097290,0.966309,-24.597166,2.319336,-2.319336
4768,-0.005493,-0.094849,0.968994,-20.141600,0.732422,-1.708984
4779,-0.009644,-0.103516,0.972534,-18.005371,-0.427246,-1.892090
4791,-0.013062,-0.118042,0.981567,-19.042969,-0.549316,-2.807617
4802,-0.012939,-0.107788,0.987183,-22.094725,0.000000,-4.028320
4813,-0.012085,-0.090088,0.994995,-24.780272,0.549316,-5.126953
4824,-0.011963,-0.074219,1.001099,-25.390623,0.488281,-5.676269
4835,-0.013306,-0.068359,1.004028,-23.254393,-0.183105,-5.676269
4847,-0.014282,-0.071167,1.005859,-13.305663,-0.915527,-3.601074
4858,-0.014648,-0.076782,1.006836,-8.239746,-0.610352,-1.831055
4869,-0.015015,-0.084595,1.007324,-5.065917,-0.122070,-0.549316
4880,-0.015503,-0.094727,1.006470,-4.760742,0.427246,-0.122070
4892,-0.012451,-0.092529,1.002808,-6.713867,0.732422,-0.549316
4903,-0.012817,-0.082642,1.002808,-9.216309,0.732422,-1.464844
4914,-0.013306,-0.073120,1.007202,-10.559081,0.671387,-2.441406
4925,-0.011353,-0.068848,1.012939,-10.314940,1.037598,-2.990722
4936,-0.009155,-0.068481,1.014771,-8.850098,1.525879,-2.990722
4948,-0.008789,-0.070435,1.013184,-3.540039,1.220703,-1.586914
4959,-0.010254,-0.070557,1.011841,-0.610352,0.366211,-0.732422
4970,-0.012329,-0.075928,1.012329,0.976562,-0.427246,-0.427246
4981,-0.013794,-0.089966,1.011353,0.244141,-0.732422,-0.793457
4992,-0.010986,-0.093872,1.003174,-2.441406,-0.488281,-1.403808
5004,-0.008179,-0.083252,1.004639,-5.310058,0.122070,-1.892090
5015,-0.005737,-0.072876,1.008057,-6.591796,1.098633,-1.831055
5026,-0.002441,-0.064453,1.010376,-5.676269,2.502441,-1.098633
5037,0.001343,-0.063843,1.012695,-3.051758,3.784179,-0.061035
5049,0.002808,-0.069946,1.013428,1.342773,5.310058,0.976562
5060,0.003296,-0.073608,1.010376,1.586914,5.249023,0.732422
5071,0.005249,-0.074951,1.004639,0.732422,4.272461,0.061035
5082,0.013428,-0.075439,0.994873,-0.488281,2.563476,-1.159668
5093,0.015625,-0.070557,0.990845,-1.281738,0.793457,-2.502441
5105,0.015503,-0.067871,0.990601,-1.342773,-0.793457,-3.479004
5116,0.014404,-0.068115,0.992310,-0.305176,-1.953125,-3.601074
5127,0.012329,-0.069702,0.992798,1.403808,-2.441406,-2.807617
5138,0.009888,-0.072388,0.991455,3.540039,-2.807617,-1.403808
5149,0.007446,-0.077148,0.990967,7.446289,-3.845215,1.647949
5161,0.003662,-0.084106,0.990356,8.178711,-4.150391,2.258301
5172,0.001099,-0.090332,0.990112,7.995605,-4.028320,2.136230
5183,-0.001465,-0.095947,0.994263,6.958007,-3.723144,1.586914
5194,-0.002441,-0.093384,0.994141,5.554199,-3.295898,1.159668
5205,-0.001831,-0.088135,0.992920,4.577637,-2.807617,0.732422
5217,-0.001587,-0.081909,0.992188,4.577637,-2.441406,0.549316
5228,-0.001099,-0.077637,0.993530,5.554199,-2.258301,0.488281
5239,-0.001831,-0.082275,0.994507,6.530761,-2.136230,0.366211
5250,-0.002686,-0.089111,0.992920,4.882812,-2.136230,0.183105
5261,-0.002197,-0.091064,0.991943,2.624511,-1.953125,0.061035
5273,-0.002197,-0.088501,0.993530,0.793457,-1.586914,-0.061035
5284,-0.006226,-0.081177,0.997681,-0.244141,-1.464844,0.000000
5295,-0.006714,-0.082520,0.999634,-0.671387,-1.770019,0.061035
5306,-0.008911,-0.086426,1.001831,-0.854492,-2.197266,0.122070
5317,-0.012207,-0.085205,1.003296,-0.549316,-2.502441,0.305176
5328,-0.014404,-0.081421,1.004639,0.671387,-2.563476,0.488281
5340,-0.017090,-0.085693,1.007690,2.197266,-2.197266,0.732422
5351,-0.018555,-0.090454,1.010254,3.234863,0.061035,0.854492
5362,-0.016968,-0.088013,1.008667,2.258301,1.159668,0.488281
5373,-0.012695,-0.081665,1.007690,1.342773,1.525879,0.061035
5384,-0.009399,-0.073486,1.008301,1.525879,1.281738,-0.183105
5396,-0.009766,-0.072876,1.003784,2.685547,0.671387,-0.305176
5407,-0.010254,-0.075562,1.000854,4.333496,-0.122070,-0.244141
5418,-0.012085,-0.081421,1.000610,5.615234,-0.793457,0.244141
5429,-0.012817,-0.084961,0.998901,6.347656,-0.793457,1.098633
5440,-0.013306,-0.090210,0.994629,5.004883,0.488281,1.770019
5452,-0.014893,-0.100098,0.994019,2.258301,1.342773,1.098633
5463,-0.016479,-0.103271,0.998413,-0.854492,2.746582,0.305176
5474,-0.017090,-0.097656,1.001953,-3.051758,4.150391,-0.122070
5485,-0.010010,-0.077759,1.001831,-3.662109,4.760742,-0.183105
5496,-0.007324,-0.076904,1.001099,-2.807617,4.272461,-0.122070
5508,-0.005127,-0.083862,0.999634,-1.647949,2.746582,-0.183105
5519,-0.004395,-0.089722,1.000610,-1.342773,1.159668,-0.244141
5530,-0.005737,-0.088745,1.001831,-2.136230,0.061035,-0.122070
5541,-0.005371,-0.082764,1.002197,-3.906250,0.793457,0.122070
5553,-0.003174,-0.077148,1.001099,-3.967285,1.770019,0.244141
5564,-0.001343,-0.075073,0.998413,-3.845215,2.563476,0.122070
5575,0.000977,-0.074951,0.997803,-4.150391,2.990722,-0.488281
5586,0.002686,-0.074707,1.001343,-4.699707,3.234863,-1.281738
5597,0.004761,-0.068726,1.000610,-5.187988,3.417969,-1.953125
5608,0.006714,-0.065674,0.997314,-5.249023,3.112793,-2.258301
5620,0.006714,-0.067993,0.992188,-4.577637,2.258301,-2.319336
5631,0.005493,-0.072998,0.987915,-3.295898,1.037598,-2.258301
5642,0.005737,-0.077759,0.987549,-1.708984,0.000000,-2.563476
5653,0.007812,-0.082642,0.991577,-2.258301,0.976562,-2.441406
5664,0.010010,-0.084961,0.999023,-3.479004,2.624511,-1.831055
5676,0.013672,-0.082764,1.007202,-5.004883,4.333496,-0.915527
5687,0.022095,-0.067505,1.023438,-6.286621,5.493164,0.427246
5698,0.023315,-0.059204,1.031372,-6.896972,6.225585,1.892090
5709,0.020508,-0.058472,1.038208,-6.896972,7.019042,2.990722
5720,0.015747,-0.065308,1.043213,-7.202148,8.300781,3.723144
5732,0.013062,-0.068604,1.047852,-8.789062,10.131835,4.333496
5743,0.012817,-0.058594,1.056396,-13.793944,15.991210,5.249023
5754,0.011963,-0.042603,1.069580,-14.953612,20.385740,5.737304
5765,0.009521,-0.028687,1.083008,-14.831542,26.306150,6.225585
5777,0.010498,-0.021362,1.090454,-15.014647,33.325195,6.713867
5788,0.017700,-0.020142,1.104858,-16.418457,41.015621,7.324218
5799,0.018921,-0.011108,1.108154,-18.676758,49.560543,8.544922
5810,0.020142,0.004272,1.104004,-20.629881,59.265133,10.009766
5822,0.023315,0.018921,1.098389,-21.484373,69.152832,10.803222
5833,0.030396,0.027832,1.095581,-21.118162,79.040527,9.948730
5844,0.046509,0.038330,1.094849,-18.615723,100.891106,2.502441
5855,0.067993,0.055298,1.090576,-15.075683,111.389153,-1.770019
5867,0.088135,0.073242,1.078613,-7.568359,120.239250,-5.615234
5878,0.138428,0.073120,1.044678,3.234863,127.258293,-8.666992
5889,0.162964,0.075073,1.021606,15.991210,132.263184,-10.742187
5900,0.183838,0.074951,0.996704,29.846189,135.681152,-12.878417
5912,0.198853,0.057251,0.971313,43.762203,138.305664,-15.991210
5923,0.218872,0.035889,0.945801,55.664059,141.357422,-20.019531
5934,0.248169,0.024780,0.925049,73.425293,147.216797,-29.785154
5946,0.266235,0.018921,0.909058,85.021965,149.475098,-34.667969
5957,0.281250,0.004761,0.890259,100.036613,150.573730,-40.100098
5968,0.309082,-0.007690,0.868042,118.957512,148.925781,-46.569820
5979,0.361450,-0.029175,0.835571,143.188477,144.348145,-54.443356
5991,0.391235,-0.079590,0.819702,170.654282,138.000488,-63.476559
6002,0.413330,-0.144775,0.787231,195.861801,130.249023,-73.364258
6014,0.433838,-0.204468,0.744019,214.111313,121.032707,-84.289543
6025,0.453003,-0.265137,0.705078,216.979965,101.745598,-103.820793
6036,0.473999,-0.317139,0.683105,208.129868,92.773430,-108.825676
6048,0.494751,-0.354736,0.665161,201.965317,82.824699,-110.595695
6059,0.499756,-0.425537,0.599365,200.927719,71.044922,-110.412590
6070,0.479492,-0.465942,0.563599,203.735336,58.532711,-110.046379
6082,0.452026,-0.512207,0.542358,208.618149,47.668453,-111.145012
6093,0.426270,-0.555664,0.535522,215.148911,40.710445,-113.464348
6105,0.413940,-0.599365,0.536987,222.473129,38.452148,-115.478508
6116,0.417480,-0.643433,0.526855,237.304672,40.466305,-115.478508
6127,0.430542,-0.681519,0.491211,242.980942,37.841797,-115.051262
6139,0.441284,-0.705078,0.440063,247.985825,30.212400,-116.943352
6150,0.426025,-0.743408,0.366333,253.601059,20.324705,-120.971672
6161,0.407349,-0.746826,0.334229,261.352539,11.840819,-125.549309
6173,0.385132,-0.755981,0.294067,272.888184,5.432128,-130.432129
6184,0.355713,-0.797852,0.254395,286.621094,0.976562,-135.620117
6195,0.317871,-0.865112,0.219238,296.569824,-0.244141,-140.197754
6207,0.289307,-0.920288,0.188599,292.724609,8.300781,-142.089844
6218,0.285400,-0.930054,0.156372,289.916992,13.427733,-139.282227
6229,0.299438,-0.904541,0.106812,297.851562,14.099120,-136.535645
6240,0.306030,-0.885986,-0.000244,315.246582,9.338379,-134.704590
6252,0.250000,-0.910156,-0.079956,330.871552,1.892090,-135.131836
6263,0.163208,-0.943604,-0.160034,335.205048,-5.126953,-139.953613
6274,0.083374,-0.997681,-0.192749,324.584930,-7.812500,-146.362305
6286,0.051025,-1.030273,-0.205566,301.086426,-2.624511,-147.827148
6297,0.067139,-1.009766,-0.236206,256.469727,15.930175,-132.629395
6308,0.105347,-0.976196,-0.291626,251.281723,16.113281,-123.718254
6320,0.128906,-0.929810,-0.355347,260.803223,8.117676,-119.567863
6331,0.057983,-0.848145,-0.476196,282.897949,-3.479004,-121.765129
6343,-0.019409,-0.891968,-0.524414,302.307129,-13.305663,-127.990715
6354,-0.080566,-0.940308,-0.563110,300.598145,-17.089844,-133.850098
6365,-0.103882,-0.939575,-0.594849,273.071289,-15.319823,-134.948730
6377,-0.100098,-0.872925,-0.622803,234.985336,-12.023925,-129.394531
6388,-0.090454,-0.787598,-0.648926,209.045395,-13.061522,-107.727043
6399,-0.086304,-0.740479,-0.669556,223.693832,-16.845703,-99.548332
6411,-0.080811,-0.733276,-0.687378,238.342270,-20.629881,-96.679680
6422,-0.037598,-0.676514,-0.761475,246.826157,-25.451658,-98.937981
6433,-0.036011,-0.653687,-0.788696,251.464828,-32.775879,-104.492180
6445,-0.073364,-0.652832,-0.809082,253.723129,-41.076656,-111.572258
6456,-0.136597,-0.650024,-0.835449,251.403793,-46.630856,-119.079582
6467,-0.182007,-0.625244,-0.849854,233.032211,-42.907711,-129.150391
6479,-0.176514,-0.572632,-0.852295,230.346664,-37.048340,-127.502434
6490,-0.142090,-0.507812,-0.858398,234.985336,-32.775879,-121.520988
6502,-0.120972,-0.463257,-0.872437,238.647446,-31.005857,-114.807121
6513,-0.120361,-0.419434,-0.951050,233.276352,-31.188963,-110.290520
6524,-0.118042,-0.374146,-1.007568,218.383774,-34.973145,-109.130852
6536,-0.139282,-0.328125,-1.049438,201.049789,-44.372555,-110.900871
6547,-0.188232,-0.303223,-1.060913,187.011703,-55.908199,-114.013664
6558,-0.221191,-0.257080,-1.049683,171.203598,-62.133785,-113.464348
6570,-0.219727,-0.226929,-1.025024,168.457016,-57.312008,-106.445305
6581,-0.198364,-0.244385,-1.016724,162.963852,-52.185055,-95.336906
6593,-0.126709,-0.233398,-1.063965,151.794434,-50.354000,-82.458488
6604,-0.087646,-0.216553,-1.090454,135.253906,-54.260250,-71.166992
6615,-0.062744,-0.165039,-1.109253,117.553703,-64.025879,-63.293453
6627,-0.071167,-0.106445,-1.119263,105.346672,-77.636719,-59.875484
6638,-0.113037,-0.103516,-1.129150,101.013176,-91.857903,-60.974117
6649,-0.158447,-0.128906,-1.131104,87.097160,-100.158684,-64.575195
6661,-0.173950,-0.132690,-1.125488,69.335938,-92.224113,-62.194820
6672,-0.139893,-0.105835,-1.123535,52.368160,-83.679192,-55.847164
6684,0.003052,-0.092041,-1.101440,38.940430,-79.467773,-47.302242
6695,0.085083,-0.084229,-1.104492,24.780272,-82.519524,-41.198727
6706,0.147339,-0.028198,-1.128418,8.361816,-95.275871,-42.053219
6718,0.160278,0.036377,-1.143921,-6.591796,-118.286125,-52.185055
6729,0.111328,0.065552,-1.127319,-14.160155,-145.812988,-70.007324
6740,0.038452,0.036255,-1.097046,-4.821777,-176.757797,-102.783195
6752,-0.017456,-0.042236,-1.100220,-4.272461,-170.837387,-103.942863
6763,-0.025146,-0.130981,-1.110474,-21.057127,-152.893066,-91.979973
6774,0.142578,-0.294800,-0.999512,-55.236813,-129.821777,-72.082520
6786,0.244873,-0.305664,-0.957397,-96.801750,-110.351555,-53.161617
6797,0.319580,-0.273438,-0.954956,-135.192871,-102.600090,-43.090816
6808,0.346191,-0.235596,-0.968628,-165.222153,-109.558098,-44.311520
6820,0.309448,-0.205322,-0.979492,-187.622055,-126.708977,-54.138180
6831,0.241943,-0.206543,-0.979736,-206.420883,-149.658203,-79.467773
6842,0.193848,-0.251099,-0.963257,-206.054672,-138.732910,-84.472649
6854,0.193848,-0.330444,-0.915039,-212.341293,-115.051262,-83.190910
6865,0.329346,-0.518677,-0.825317,-232.971176,-88.989250,-79.162598
6876,0.412109,-0.559937,-0.855347,-268.005371,-73.913574,-77.026367
6888,0.453613,-0.540039,-0.901123,-309.143066,-79.040527,-80.322258
6899,0.443970,-0.470947,-0.924927,-342.224091,-101.562492,-89.782707
6910,0.398438,-0.377197,-0.892334,-353.088348,-130.798340,-103.210442
6922,0.348511,-0.321289,-0.803223,-282.714844,-161.804184,-124.145500
6933,0.331421,-0.367065,-0.710083,-221.984848,-154.357910,-124.084465
6945,0.346924,-0.522583,-0.635986,-175.964340,-139.343262,-118.225090
6956,0.380249,-0.909790,-0.522827,-165.161118,-123.901360,-111.511223
6967,0.383667,-0.969604,-0.505005,-191.833481,-112.487785,-109.741203
6979,0.374878,-0.906616,-0.494263,-237.609848,-106.750481,-116.333000
6990,0.369263,-0.782715,-0.471313,-273.437500,-105.407707,-127.929680
7001,0.374268,-0.708618,-0.424561,-261.352539,-106.994621,-140.808105
7013,0.364014,-0.707764,-0.358765,-228.698715,-106.018059,-136.718750
7024,0.335205,-0.727783,-0.295898,-193.298325,-101.867668,-129.699707
7035,0.295166,-0.846558,-0.185303,-164.550766,-95.214836,-123.962395
7047,0.271973,-0.928711,-0.156494,-149.902344,-88.745110,-121.215813
7058,0.233276,-0.963623,-0.150269,-152.770996,-84.960930,-123.352043
7070,0.200562,-0.965820,-0.121948,-168.945297,-84.167473,-130.554199
7081,0.186401,-0.952393,-0.080933,-188.964828,-84.167473,-140.380859
7092,0.176025,-0.918335,-0.063721,-209.289536,-82.519524,-161.743149
7104,0.161987,-0.892334,-0.040161,-204.895004,-78.979492,-167.968735
7115,0.145020,-0.890503,0.003906,-198.425278,-72.021484,-168.884262
7126,0.093872,-0.947998,0.087769,-197.814926,-62.561031,-166.259750
7138,0.053833,-0.920898,0.120972,-202.209457,-52.307125,-164.489731
7149,0.016357,-0.895264,0.168701,-205.139145,-41.870113,-167.053207
7161,-0.018921,-0.898682,0.197510,-205.383286,-30.700682,-173.583969
7172,-0.056641,-0.909424,0.199463,-207.275375,-20.751951,-182.495102
7183,-0.088989,-0.899292,0.207031,-223.144516,-14.831542,-206.420883
7195,-0.108154,-0.874390,0.238159,-229.553207,-12.634276,-219.543442
7206,-0.118286,-0.853394,0.290039,-232.482895,-5.615234,-229.003891
7217,-0.150391,-0.811768,0.396240,-233.886703,5.798339,-233.032211
7229,-0.187988,-0.770752,0.437134,-234.863266,18.554688,-233.520493
7240,-0.228638,-0.715698,0.472412,-233.642563,30.334471,-233.398422
7251,-0.263672,-0.667236,0.496704,-228.454575,40.222164,-234.863266
7263,-0.295654,-0.637939,0.510620,-221.008286,47.363277,-238.159164
7274,-0.322388,-0.613037,0.527100,-208.862289,53.833004,-245.544418
7285,-0.338013,-0.574097,0.554321,-202.575668,56.457516,-247.558578
7297,-0.343994,-0.530273,0.585938,-194.213852,60.363766,-246.643051
7308,-0.351440,-0.466553,0.644409,-184.082016,65.734863,-241.332993
7320,-0.364990,-0.434692,0.669678,-173.828110,71.960449,-231.079086
7331,-0.395142,-0.400024,0.689331,-164.367661,77.331543,-216.857895
7342,-0.425171,-0.366089,0.699219,-154.418945,80.383293,-201.843246
7354,-0.446899,-0.342041,0.707642,-136.047363,77.514648,-181.579575
7365,-0.464111,-0.340332,0.726318,-133.056641,74.462891,-177.734360
7376,-0.473145,-0.337769,0.753662,-134.582520,72.326660,-175.720200
7388,-0.473511,-0.305298,0.785156,-135.803223,71.228027,-173.278793
7399,-0.463013,-0.220581,0.842773,-131.713867,71.350098,-168.579086
7410,-0.455078,-0.209961,0.869751,-120.727531,73.791504,-159.851074
7422,-0.447998,-0.218994,0.891724,-106.201164,80.749504,-147.216797
7433,-0.448975,-0.219604,0.908447,-93.505852,91.918938,-132.141113
7444,-0.452759,-0.201172,0.914551,-78.674316,113.525383,-106.811516
7456,-0.452393,-0.181274,0.906616,-78.674316,115.783684,-101.013176
7467,-0.447266,-0.171753,0.896484,-85.693352,110.595695,-99.792473
7478,-0.393677,-0.109375,0.912231,-93.383781,100.891106,-101.440422
7490,-0.357056,-0.044312,0.934204,-94.177238,90.026848,-101.745598
7501,-0.331421,0.007080,0.964600,-84.350578,80.688469,-95.947258
7512,-0.317871,0.023071,0.990845,-64.270020,76.049805,-82.641594
7524,-0.314819,-0.007202,1.009033,-38.940430,78.491211,-65.368652
7535,-0.319946,-0.063843,1.019775,-9.826660,106.323235,-43.029781
7546,-0.325806,-0.104858,1.011841,-19.836426,121.765129,-43.457027
7558,-0.313599,-0.110352,0.983398,-42.602535,125.793449,-49.377438
7569,-0.273315,-0.071777,0.952148,-64.453125,114.929192,-55.419918
7580,-0.179199,0.079712,0.940796,-70.800781,93.200676,-56.091305
7592,-0.163696,0.093506,0.958984,-56.579586,69.763184,-48.461910
7603,-0.170166,0.048584,0.978516,-29.296873,53.955074,-34.606934
7614,-0.186401,-0.019287,0.993896,-2.624511,50.598141,-20.019531
7626,-0.193726,-0.081421,1.002563,6.530761,73.547363,-7.385253
7637,-0.183228,-0.096680,1.006226,-9.765625,87.707512,-10.375976
7648,-0.161377,-0.052979,1.005127,-25.756834,94.604485,-15.930175
7659,-0.137451,0.014038,1.003662,-32.226562,91.247551,-20.568846
7671,-0.072876,0.095337,1.007202,-27.526854,79.650879,-21.240232
7682,-0.053711,0.091431,1.014282,-15.686034,65.429688,-17.089844
7693,-0.058960,0.054321,1.021851,-2.563476,54.321285,-9.521484
7705,-0.071045,0.009888,1.031128,7.141113,50.842281,-1.464844
7716,-0.078369,-0.017212,1.045044,9.948730,56.518551,4.211426
7727,-0.073242,-0.026978,1.056519,-5.615234,82.397453,3.601074
7738,-0.049194,-0.013306,1.057373,-18.066406,89.904778,-0.732422
7750,-0.015137,0.025879,1.044189,-25.329588,86.608879,-4.699707
7761,0.047729,0.113647,1.004883,-22.644041,73.181152,-6.347656
7772,0.052368,0.107178,0.999756,-12.084960,55.603024,-5.493164
7783,0.047241,0.073853,1.000977,1.342773,41.809078,-2.746582
7795,0.042603,0.040649,1.002441,13.061522,36.926270,1.281738
7806,0.041138,0.024170,1.000366,20.446775,40.893551,5.615234
7817,0.039673,0.015381,0.996216,19.897461,59.509274,12.756347
7828,0.045410,0.003540,0.996582,10.437011,64.331055,13.305663
7840,0.062988,-0.005371,1.005859,-4.028320,63.232418,10.314940
7851,0.084106,0.006836,1.010864,-17.272949,55.725094,4.821777
7862,0.127441,0.089233,0.992310,-22.460936,42.053219,-0.549316
7873,0.135254,0.097778,0.986694,-18.310547,25.207518,-2.929687
7885,0.130371,0.080688,0.981689,-6.774902,10.314940,-1.647949
7896,0.116821,0.055176,0.977783,7.385253,1.098633,1.586914
7907,0.099487,0.033691,0.979614,18.432617,-1.831055,4.821777
7918,0.086182,0.009399,0.996094,20.568846,5.310058,7.507324
7930,0.081177,-0.013184,1.015747,12.695312,11.169433,7.080078
7941,0.088623,-0.014771,1.021484,2.380371,13.671874,5.615234
7952,0.113037,0.022461,1.009277,-6.225585,10.803222,3.662109
7963,0.114380,0.044922,1.005249,-10.070800,4.394531,2.136230
7975,0.112793,0.059814,1.002441,-8.544922,-1.892090,1.831055
7986,0.107300,0.063721,1.003418,-3.967285,-5.310058,2.929687
7997,0.099121,0.056519,1.013428,0.488281,-4.943848,4.638672
8008,0.092407,0.043457,1.027588,2.624511,4.821777,6.958007
8019,0.090820,0.035645,1.037720,0.915527,11.291503,7.202148
8031,0.095459,0.035278,1.038330,-2.319336,16.113281,6.591796
8042,0.103394,0.039673,1.033325,-6.591796,18.127441,5.126953
8053,0.130249,0.084106,1.032837,-9.887695,17.089844,3.417969
8064,0.140625,0.109619,1.029297,-9.521484,13.305663,2.380371
8075,0.142578,0.119629,1.021851,-4.577637,7.995605,2.136230
8087,0.137817,0.112671,1.016724,2.990722,3.295898,2.136230
8098,0.130371,0.097778,1.014893,10.070800,0.854492,1.831055
8109,0.125366,0.080688,1.011353,17.272949,1.770019,-0.122070
8120,0.123779,0.062256,1.004395,16.601562,2.868652,-1.586914
8132,0.124023,0.045288,0.997803,13.183593,3.601074,-3.234863
8143,0.127441,0.039795,0.992798,9.216309,3.967285,-4.882812
8154,0.139282,0.057983,0.984985,7.080078,3.845215,-6.164550
8165,0.139893,0.061768,0.981689,7.629394,3.173828,-6.774902
8177,0.140503,0.055420,0.977661,10.009766,2.136230,-6.286621
8188,0.138550,0.038818,0.973633,12.756347,0.671387,-4.699707
8199,0.132568,0.020264,0.970459,14.526366,-0.732422,-2.624511
8210,0.127808,0.003540,0.969727,12.023925,-1.708984,-1.403808
8222,0.127319,-0.007324,0.971313,8.178711,-1.831055,-2.746582
8233,0.130371,-0.005249,0.972900,4.882812,-2.136230,-3.723144
8244,0.136597,0.016113,0.977295,3.601074,-2.807617,-3.479004
8255,0.134521,0.021973,0.980469,4.577637,-3.662109,-2.014160
8267,0.132690,0.023071,0.986694,6.591796,-4.333496,0.122070
8278,0.131592,0.019531,0.993652,8.422852,-4.699707,1.953125
8289,0.129150,0.010376,0.997803,8.850098,-5.126953,2.807617
8300,0.124023,0.005493,1.002563,3.601074,-4.821777,1.708984
8311,0.120239,0.012939,1.008179,0.610352,-3.540039,0.976562
8323,0.121582,0.020752,1.009888,-1.159668,-2.441406,0.305176
8334,0.125610,0.022827,1.010132,-1.708984,-2.197266,-0.061035
8345,0.123291,0.028931,1.006104,-0.610352,-2.929687,0.000000
8356,0.121338,0.031128,1.002441,2.136230,-4.272461,-0.061035
8367,0.117798,0.023804,1.006470,5.004883,-5.126953,-0.732422
8379,0.112427,0.012207,1.015869,6.347656,-4.699707,-1.586914
8390,0.109985,0.005005,1.019043,5.920410,-2.624511,-1.831055
8401,0.110229,0.008789,1.014893,3.356933,2.990722,0.854492
8412,0.109375,0.013916,1.012085,2.502441,4.760742,2.258301
8423,0.109497,0.014648,1.011597,2.258301,5.004883,2.990722
8435,0.115967,0.016235,1.006958,2.502441,3.662109,2.929687
8446,0.127197,0.020386,0.983398,2.502441,1.037598,2.075195
8457,0.127075,0.022949,0.980835,2.319336,-1.403808,0.915527
8468,0.125732,0.023682,0.984131,2.746582,-2.441406,0.366211
8479,0.122437,0.021973,0.984863,4.089355,-2.075195,0.915527
8491,0.123535,0.018311,0.980347,5.981445,-1.098633,2.075195
8502,0.123535,0.008179,0.977051,6.469726,0.427246,2.136230
8513,0.119995,-0.002197,0.979614,3.723144,0.915527,1.037598
8524,0.121704,0.002441,0.982422,0.061035,1.037598,0.183105
8535,0.128784,0.019409,0.981812,-2.258301,-0.305176,-0.183105
8546,0.135132,0.038574,0.979736,-1.831055,-2.990722,0.061035
8558,0.131836,0.035156,0.978882,0.366211,-5.737304,0.671387
8569,0.128052,0.028809,0.982788,2.502441,-7.263183,1.342773
8580,0.125977,0.028320,0.990234,3.479004,-7.324218,1.586914
8591,0.126465,0.035156,0.997681,3.662109,-6.286621,1.403808
8602,0.124756,0.037598,1.002563,5.981445,-5.065917,1.525879
8614,0.121948,0.030273,1.003784,7.324218,-5.065917,1.647949
8625,0.120972,0.018188,1.003296,7.141113,-5.249023,1.403808
8636,0.119507,0.012085,1.001465,5.859375,-5.859375,0.549316
8647,0.109131,0.008301,0.998047,4.455566,-6.591796,-0.671387
8658,0.101562,0.000000,0.998169,3.173828,-6.774902,-2.075195
8680,0.094849,-0.013062,1.002197,1.647949,-3.967285,-3.051758
8691,0.097046,-0.011108,1.000122,1.403808,-1.770019,-2.380371
8703,0.099609,-0.004639,0.997192,1.403808,-0.366211,-1.647949
8714,0.102539,-0.002808,0.995605,2.563476,-0.244141,-0.427246
8725,0.106323,-0.010010,0.993652,3.051758,-0.793457,0.427246
8736,0.109253,-0.016357,0.990967,2.807617,-1.525879,1.403808
8748,0.112427,0.006226,0.996094,2.563476,-2.380371,2.197266
8759,0.115234,0.015137,1.001953,3.601074,-3.234863,2.746582
8770,0.116577,0.012695,1.003540,5.859375,-3.967285,3.051758
8781,0.116455,0.005737,1.001953,7.873535,-4.760742,3.051758
8792,0.115601,0.000977,1.000854,8.422852,-5.554199,2.807617
8804,0.110107,-0.001953,1.002930,6.286621,-5.737304,2.380371
8815,0.102539,-0.005249,1.008911,4.516602,-4.821777,2.075195
8826,0.097168,-0.010254,1.014526,2.746582,-3.479004,1.892090
8837,0.093750,-0.013306,1.018433,1.647949,-2.075195,1.953125
8848,0.087769,-0.010498,1.022217,1.281738,-0.854492,2.319336
8860,0.087646,-0.003662,1.022095,1.403808,0.244141,2.746582
8871,0.090698,0.000732,1.023315,1.708984,1.342773,3.112793
8882,0.095459,0.002319,1.023315,2.380371,2.502441,3.540039
8893,0.097900,0.001831,1.018799,3.295898,3.723144,3.784179
8904,0.100952,0.000610,1.012085,3.479004,5.615234,3.051758
8916,0.104980,0.003174,1.006104,2.868652,6.103515,2.563476
8927,0.107788,0.009766,1.001221,2.929687,6.408691,2.380371
8938,0.108887,0.013184,0.997192,3.662109,6.408691,2.502441
8949,0.107666,0.001099,0.990845,4.028320,5.920410,2.563476
8960,0.109131,-0.000854,0.985474,3.234863,4.760742,2.380371
8972,0.111450,0.005615,0.979980,1.892090,2.868652,2.075195
8983,0.111938,0.012451,0.976318,1.770019,0.549316,1.770019
8994,0.110107,0.015137,0.973022,3.601074,-1.281738,1.647949
9005,0.106445,0.009521,0.972168,7.873535,-3.417969,1.464844
9017,0.102905,-0.000122,0.972656,8.728027,-3.723144,1.770019
9028,0.100220,-0.007690,0.972778,8.239746,-3.967285,1.953125
9039,0.095825,-0.016602,0.975342,6.225585,-3.967285,1.586914
9050,0.095703,-0.018311,0.981323,2.929687,-3.417969,0.610352
9061,0.099121,-0.004028,0.985474,-0.183105,-2.868652,-0.305176
9072,0.102539,0.004395,0.989502,-1.220703,-2.807617,-0.549316
9084,0.105713,0.004639,0.991577,-0.061035,-3.173828,-0.061035
9095,0.107300,0.002563,0.992188,1.647949,-3.601074,0.366211
9106,0.110107,0.002930,0.993774,2.624511,-4.699707,0.549316
9117,0.109985,0.006836,0.997925,2.807617,-5.065917,0.854492
9128,0.106445,0.007080,1.001709,3.601074,-5.065917,1.159668
9140,0.104248,0.002686,1.004272,4.333496,-4.638672,0.976562
9151,0.094238,-0.009888,1.010376,3.540039,-3.906250,0.000000
9162,0.092285,-0.008423,1.014404,1.586914,-2.929687,-1.220703
9173,0.093750,0.000122,1.015503,-0.427246,-1.953125,-2.380371
9184,0.096680,0.007324,1.015747,-1.098633,-1.281738,-3.173828
9196,0.098145,0.004395,1.013794,-0.061035,-1.037598,-3.295898
9207,0.097778,-0.006348,1.009155,2.624511,-1.220703,-2.319336
9218,0.097168,-0.017456,1.007202,1.708984,-1.098633,-2.014160
9229,0.094971,-0.021851,1.010254,0.000000,-0.183105,-1.892090
9240,0.091675,-0.019165,1.013428,-1.403808,1.159668,-1.831055
9252,0.094482,-0.012207,1.010132,-2.014160,2.136230,-1.831055
9263,0.096436,-0.009766,1.005371,-1.525879,2.136230,-1.831055
9274,0.098389,-0.008423,0.999634,-0.061035,1.220703,-1.586914
9285,0.101074,-0.011841,0.995605,1.892090,-0.244141,-1.281738
9296,0.099609,-0.020630,0.994263,3.967285,-1.464844,-0.976562
9308,0.094604,-0.028687,0.995117,4.455566,-1.037598,-0.305176
9319,0.092651,-0.028076,0.997925,2.319336,0.122070,-0.183105
9330,0.094238,-0.019531,1.002808,-0.061035,1.037598,-0.122070
9341,0.096680,-0.011597,1.009033,-1.464844,1.159668,-0.061035
9352,0.102417,-0.002563,1.010498,-1.403808,0.854492,0.000000
9363,0.103149,-0.002319,1.008057,-0.793457,0.183105,-0.244141
9375,0.101807,-0.003906,1.006958,-0.244141,-0.427246,-0.732422
9386,0.101562,-0.006836,1.004883,-0.061035,-0.366211,-1.281738
9397,0.102783,-0.008545,1.001831,-0.061035,0.427246,-1.464844
9408,0.101196,-0.010376,0.999634,-0.793457,2.197266,-0.610352
9419,0.099243,-0.009766,0.998901,-1.098633,2.807617,-0.366211
9431,0.098755,-0.006226,0.998901,-0.488281,3.234863,-0.488281
9442,0.098511,-0.005371,0.999756,0.915527,3.356933,-0.549316
9453,0.096924,-0.017090,0.996826,2.136230,2.990722,-0.427246
9464,0.099487,-0.023804,0.992188,2.441406,1.892090,-0.366211
9476,0.102661,-0.023682,0.989136,1.831055,0.427246,-0.305176
9487,0.101807,-0.018677,0.990967,1.098633,-0.854492,-0.122070
9498,0.098267,-0.013550,0.995972,1.037598,-1.098633,0.183105
9509,0.096802,-0.013916,1.000122,2.563476,1.892090,1.220703
9520,0.097900,-0.018921,1.001099,2.258301,3.417969,1.342773
9531,0.100708,-0.020508,0.998291,1.342773,3.845215,1.159668
9543,0.108276,-0.012573,0.991821,0.732422,2.868652,0.793457
9554,0.108643,-0.011108,0.990356,0.671387,0.854492,0.427246
9565,0.106079,-0.011719,0.988770,0.854492,-1.342773,0.122070
9576,0.101685,-0.012329,0.989258,0.793457,-2.929687,-0.122070
9587,0.098755,-0.010864,0.991455,0.427246,-3.417969,-0.366211
9599,0.099365,-0.004272,0.991699,0.732422,-2.746582,-0.549316
9610,0.099487,0.000488,0.989746,4.760742,-0.610352,-0.427246
9621,0.098267,-0.006226,0.991577,6.469726,0.122070,-0.183105
9632,0.098633,-0.018677,0.997559,6.042480,0.732422,0.061035
9643,0.102905,-0.013062,1.002441,4.028320,1.098633,0.244141
9655,0.103638,-0.002319,1.002930,2.319336,0.915527,0.244141
9666,0.102661,-0.000488,1.001465,1.953125,0.366211,0.061035
9677,0.101562,-0.008911,0.999268,2.563476,-0.244141,-0.305176
9688,0.100830,-0.016968,0.999390,2.868652,-0.793457,-0.732422
9699,0.100952,-0.017944,1.002197,2.197266,-1.159668,-1.098633
9711,0.100342,-0.014771,1.005737,0.915527,-0.549316,-1.037598
9722,0.098877,-0.012695,1.008545,2.075195,0.122070,-0.549316
9733,0.098999,-0.014160,1.008301,4.150391,0.610352,-0.122070
9744,0.097778,-0.018677,1.006226,6.103515,0.854492,0.122070
9755,0.099243,-0.020996,1.007324,6.835937,0.854492,0.183105
9767,0.099854,-0.024048,1.007446,6.469726,0.854492,0.488281
9778,0.099243,-0.026123,1.005737,5.432128,1.037598,0.854492
9789,0.099487,-0.026978,1.002197,4.089355,1.464844,0.793457
9800,0.101929,-0.025635,0.998779,2.319336,2.075195,0.305176
9811,0.105713,-0.021973,0.996460,-1.342773,2.807617,-0.488281
9823,0.108032,-0.016724,0.992920,-1.892090,2.319336,-0.183105
9834,0.109375,-0.009766,0.988159,-0.671387,1.403808,0.305176
9845,0.109131,-0.015747,0.983154,1.647949,0.488281,0.793457
9856,0.105469,-0.030151,0.984497,3.479004,0.122070,1.342773
9867,0.101807,-0.036133,0.988281,3.295898,0.549316,1.708984
9879,0.102295,-0.028687,0.990723,1.159668,1.098633,1.770019
9890,0.105225,-0.017212,0.991089,-0.976562,1.281738,1.403808
9901,0.108276,-0.014282,0.988892,-1.098633,0.305176,-0.122070
9912,0.109619,-0.018066,0.985352,-0.976562,-0.427246,-0.671387
9923,0.109131,-0.018921,0.985840,-1.525879,-0.854492,-0.793457
9934,0.107788,-0.014038,0.989502,-1.831055,-0.915527,-0.427246
9946,0.103638,-0.009644,0.996338,-1.159668,-0.793457,0.244141
9957,0.103638,-0.016602,0.996826,0.000000,-0.671387,0.793457
9968,0.105591,-0.020996,0.996460,0.732422,-0.549316,1.037598
9979,0.106934,-0.018311,0.998779,0.305176,-0.549316,0.854492
9991,0.105835,-0.010864,1.004028,-0.671387,-0.732422,0.610352
10002,0.103760,-0.007324,1.008301,-1.342773,-0.976562,-0.061035
10013,0.102295,-0.010864,1.010010,-1.403808,-0.793457,-0.366211
10024,0.101318,-0.015015,1.010742,-2.075195,-0.427246,-0.488281
10035,0.100464,-0.017334,1.012085,-3.784179,0.427246,-0.549316
10047,0.100220,-0.019775,1.020264,-6.408691,2.441406,-0.976562
10058,0.100098,-0.012085,1.024414,-9.399414,5.676269,-1.770019
10069,0.101562,-0.003784,1.027100,-12.268065,9.094238,-2.868652
10080,0.104858,0.001099,1.026367,-14.892577,11.718749,-3.784179
10092,0.108276,-0.002930,1.023193,-17.517090,13.305663,-4.394531
10103,0.110718,-0.008423,1.017090,-27.160643,17.028809,-5.798339
10114,0.113770,-0.007568,1.015259,-34.912109,20.446775,-7.019042
10126,0.120361,0.007446,1.015137,-42.175289,24.353025,-8.117676
10137,0.133911,0.051514,1.016968,-46.874996,28.137205,-8.544922
10148,0.136353,0.056519,1.023438,-49.316402,32.287598,-8.422852
10159,0.136230,0.048462,1.026978,-51.818844,37.780762,-8.300781
10171,0.138550,0.039185,1.023315,-57.128902,44.677731,-8.666992
10182,0.148926,0.055298,1.016479,-66.772461,51.696774,-9.826660
10193,0.164551,0.092041,1.011353,-87.707512,59.631344,-13.671874
10204,0.183594,0.135864,1.008301,-90.332024,60.241695,-15.563964
10216,0.203735,0.179077,1.006348,-85.998528,59.448238,-17.089844
10227,0.218506,0.209473,1.002197,-76.782227,58.105465,-18.188477
10238,0.234497,0.249756,0.989868,-64.514160,56.884762,-18.615723
10249,0.242065,0.263672,0.987915,-49.743649,56.335445,-18.676758
10261,0.252319,0.263184,0.984253,-34.729004,56.640621,-18.859863
10272,0.265625,0.264771,0.976929,-22.216795,57.617184,-20.080564
10283,0.276733,0.277344,0.967285,-12.817382,58.715816,-22.705076
10295,0.285767,0.297607,0.957153,7.446289,59.814449,-30.456541
10306,0.297119,0.322266,0.951782,24.719236,60.729977,-34.057617
10317,0.306274,0.346802,0.951172,48.583981,62.805172,-37.780762
10328,0.289551,0.276855,0.955078,75.073242,67.077637,-42.419430
10340,0.284424,0.185303,0.967285,93.566887,76.293945,-47.546383
10351,0.293579,0.117432,0.967285,95.764153,91.735832,-51.269527
10362,0.319580,0.091919,0.942627,84.777824,109.558098,-52.246090
10373,0.354614,0.102539,0.909058,70.495605,124.206535,-51.086422
10385,0.384521,0.139648,0.884399,68.176270,136.413574,-47.790524
10396,0.412964,0.187500,0.875488,91.613762,135.192871,-50.048824
10407,0.445923,0.224121,0.871094,129.394531,129.638672,-57.189938
10418,0.467896,0.207153,0.854370,172.729477,120.483391,-69.824219
10430,0.495850,0.041016,0.767334,210.754379,110.107414,-85.571281
10441,0.497070,-0.045044,0.730591,236.267075,100.219719,-100.158684
10453,0.492798,-0.147095,0.714966,248.229965,91.613762,-110.351555
10464,0.507446,-0.234863,0.709473,248.718246,84.960930,-114.379875
10475,0.529419,-0.267212,0.696045,242.553696,71.472168,-110.961906
10487,0.539429,-0.274658,0.669434,250.549301,61.828609,-110.412590
10498,0.529907,-0.314453,0.648438,263.610840,52.673336,-113.159172
10510,0.481934,-0.442627,0.594360,275.329590,45.837399,-119.201653
10521,0.473999,-0.529663,0.565308,282.653809,40.222164,-126.770012
10532,0.478149,-0.614380,0.545288,281.494141,35.461426,-132.629395
10544,0.478394,-0.658813,0.508057,270.446777,31.066893,-135.009766
10555,0.475098,-0.683594,0.457031,256.835938,24.780272,-135.192871
10566,0.462402,-0.712036,0.414307,243.591293,5.554199,-134.521484
10578,0.433838,-0.729492,0.389160,247.314438,-3.295898,-134.277344
10589,0.401489,-0.748291,0.376587,256.286621,-8.972168,-134.277344
10600,0.366455,-0.835938,0.318848,262.634277,-12.268065,-135.131836
10612,0.374634,-0.836182,0.280151,262.573242,-15.319823,-137.573242
10623,0.376221,-0.826782,0.242554,260.620117,-19.653320,-141.479492
10635,0.347412,-0.860229,0.211182,260.070801,-24.963377,-145.935059
10646,0.307373,-0.925293,0.197754,255.615219,-28.930662,-149.230957
10657,0.283569,-0.964233,0.178589,224.243149,-27.465818,-144.470215
10669,0.272949,-0.948608,0.142944,215.148911,-26.855467,-138.671875
10680,0.257324,-0.920654,0.112549,221.130356,-28.076170,-134.216309
10691,0.219116,-0.916870,0.052612,237.365707,-30.029295,-133.544922
10703,0.193970,-0.941772,0.016357,254.455551,-32.165527,-137.268066
10714,0.152588,-0.990845,-0.021851,262.084961,-33.203125,-143.127441
10725,0.109741,-1.024902,-0.062988,252.380356,-31.494139,-147.460938
10737,0.078369,-1.003052,-0.109863,210.571274,-23.803709,-147.216797
10748,0.058228,-0.958618,-0.149048,206.298813,-22.155760,-146.179199
10760,0.049927,-0.932373,-0.177002,216.003403,-22.766111,-147.705078
10771,0.046509,-0.915649,-0.210327,231.567368,-25.695799,-152.893066
10782,0.001343,-0.921265,-0.290039,244.201645,-29.479979,-160.522461
10794,-0.029297,-0.910767,-0.338135,249.938950,-32.165527,-166.625961
10805,-0.066772,-0.913940,-0.391602,251.220688,-33.386230,-168.273911
10816,-0.111084,-0.934692,-0.443604,248.352036,-33.447266,-164.367661
10828,-0.148804,-0.924927,-0.495728,231.872543,-31.249998,-145.324707
10839,-0.166748,-0.895630,-0.527832,229.614243,-30.883787,-136.169434
10850,-0.155518,-0.847046,-0.545776,236.816391,-32.409668,-130.676270
10862,-0.096558,-0.730347,-0.634644,252.929672,-38.208008,-130.920410
10873,-0.103882,-0.697754,-0.681763,271.606445,-48.461910,-137.268066
10884,-0.138672,-0.674438,-0.717163,284.729004,-60.119625,-147.583008
10896,-0.180908,-0.666504,-0.756226,288.574219,-69.335938,-158.264160
10907,-0.219971,-0.643311,-0.800781,282.653809,-75.256348,-165.954575
10918,-0.245850,-0.613281,-0.835083,257.019043,-81.603996,-165.283188
10930,-0.263062,-0.615967,-0.858521,244.201645,-83.007805,-156.616211
10941,-0.287720,-0.620483,-0.893188,230.834946,-83.862297,-144.714355
10953,-0.296143,-0.573608,-0.936401,217.407211,-84.472649,-130.859375
10964,-0.261475,-0.537598,-0.953857,202.819809,-84.533684,-113.830559
10975,-0.219971,-0.507202,-0.971436,188.598618,-85.815422,-94.360344
10987,-0.183960,-0.507324,-0.991333,177.185043,-90.698235,-75.744629
10998,-0.145264,-0.490723,-1.019897,165.405258,-100.219719,-60.424801
11009,-0.129272,-0.420532,-1.044800,139.465332,-132.324219,-51.757809
11021,-0.180664,-0.341187,-1.079102,128.234863,-147.155762,-60.974117
11032,-0.253418,-0.291992,-1.128052,118.957512,-154.113770,-72.509766
11043,-0.272339,-0.363525,-1.134033,106.750481,-152.587891,-76.538086
11055,-0.197388,-0.418945,-1.098145,83.862297,-144.958496,-68.359375
11066,-0.091187,-0.396851,-1.082886,51.147457,-137.084961,-52.185055
11077,-0.015747,-0.332275,-1.088867,19.592285,-136.047363,-37.597656
11089,-0.008057,-0.279053,-1.109741,-3.295898,-143.493652,-32.043457
11100,-0.045898,-0.225220,-1.128906,-32.531738,-164.428696,-51.635738
11111,-0.084106,-0.165039,-1.116089,-34.362793,-168.823227,-68.237305
11123,-0.083496,-0.167114,-1.062134,-24.353025,-166.320786,-79.040527
11134,0.031128,-0.388794,-0.960327,-15.808105,-158.081055,-79.284668
11145,0.071167,-0.465210,-0.955566,-21.667479,-148.254395,-70.983887
11157,0.085938,-0.491089,-0.968384,-42.175289,-139.892578,-60.058590
11168,0.111572,-0.489990,-0.965698,-68.603516,-133.422852,-50.781246
11179,0.152222,-0.475586,-0.941772,-92.224113,-129.089355,-44.494625
11191,0.181030,-0.452271,-0.918457,-118.286125,-130.126953,-44.311520
11202,0.196777,-0.417358,-0.898438,-117.980949,-133.117676,-49.865719
11213,0.205566,-0.396973,-0.876343,-110.473625,-134.582520,-55.541988
11225,0.187256,-0.455322,-0.858643,-102.722160,-133.178711,-59.204098
11236,0.202393,-0.520752,-0.842285,-100.891106,-128.295898,-59.814449
11248,0.236816,-0.583618,-0.822021,-109.436028,-120.605461,-57.250973
11259,0.273315,-0.605225,-0.812134,-129.760742,-112.976067,-53.894039
11270,0.304810,-0.572632,-0.807129,-157.897949,-109.008781,-53.344723
11282,0.318970,-0.518066,-0.804810,-197.936996,-117.370598,-65.856934
11293,0.308228,-0.475952,-0.805420,-197.509750,-125.061028,-77.575684
11304,0.280029,-0.473145,-0.793457,-187.988266,-129.028320,-89.782707
11316,0.257812,-0.578857,-0.705566,-179.565414,-124.389641,-100.036613
11327,0.276367,-0.659302,-0.643677,-179.809555,-110.534660,-107.116692
11338,0.293579,-0.710327,-0.577881,-192.077621,-90.515129,-111.389153
11350,0.306152,-0.714844,-0.538086,-212.951645,-68.420410,-116.516106
11361,0.305542,-0.709106,-0.542603,-246.765121,-42.419430,-139.465332
11373,0.296753,-0.721436,-0.572632,-254.455551,-44.250484,-152.954102
11384,0.298340,-0.746948,-0.601440,-257.812500,-55.358883,-161.499008
11395,0.296021,-0.783325,-0.527344,-256.164551,-70.068359,-162.475571
11407,0.276001,-0.788452,-0.410645,-246.215805,-78.002930,-157.104492
11418,0.246216,-0.812622,-0.294067,-226.501450,-72.937012,-148.681641
11429,0.212891,-0.871948,-0.211548,-202.514633,-58.227535,-140.075684
11441,0.179321,-0.953369,-0.168335,-183.715805,-41.076656,-132.385254
11452,0.148071,-1.024292,-0.152466,-188.598618,-17.028809,-123.168938
11463,0.121826,-1.040039,-0.147339,-204.772934,-12.878417,-122.436516
11475,0.104980,-0.994263,-0.130493,-214.233383,-13.000487,-123.535149
11486,0.070435,-0.931396,-0.072144,-211.730942,-15.197753,-125.549309
11497,0.052979,-0.953125,-0.030640,-201.477036,-17.089844,-125.915520
11509,0.028931,-0.968750,0.013916,-189.880356,-15.502929,-123.229973
11520,0.005371,-0.981201,0.053589,-181.396469,-8.666992,-119.506828
11532,-0.012573,-0.996460,0.083252,-178.771957,1.892090,-117.675774
11543,-0.027954,-1.003418,0.098267,-196.044907,23.376463,-124.816887
11554,-0.042725,-1.001953,0.103271,-213.623032,29.541014,-132.995605
11566,-0.059082,-0.988159,0.103760,-232.421860,32.043457,-142.822266
11577,-0.078735,-0.901245,0.157959,-246.765121,33.081055,-153.686523
11588,-0.085205,-0.860352,0.209106,-252.563461,35.949707,-163.879379
11600,-0.100464,-0.842163,0.262939,-250.976547,41.931149,-171.447739
11611,-0.121460,-0.835205,0.318359,-248.291000,49.133297,-175.964340
11622,-0.143311,-0.812256,0.359009,-249.633774,56.091305,-178.955063
11634,-0.171387,-0.783691,0.385254,-260.559082,63.781734,-188.110336
11645,-0.203247,-0.742920,0.416870,-262.817383,65.734863,-193.725571
11656,-0.219727,-0.690430,0.467651,-260.131836,69.152832,-197.936996
11668,-0.244751,-0.598511,0.564941,-255.126938,72.937012,-199.645981
11679,-0.264038,-0.546143,0.599365,-251.037582,73.791504,-200.134262
11690,-0.281616,-0.485596,0.637085,-247.802719,69.885254,-201.354965
11702,-0.305054,-0.440186,0.682983,-243.041977,62.866207,-203.857407
11713,-0.321655,-0.408325,0.730103,-235.656723,56.762691,-206.420883
11725,-0.328369,-0.369995,0.769897,-212.463364,53.222652,-200.134262
11736,-0.338867,-0.321411,0.801758,-193.054184,52.795406,-189.880356
11747,-0.351440,-0.284058,0.834839,-169.677719,52.124020,-177.185043
11759,-0.387207,-0.293701,0.904419,-147.949219,53.039547,-162.841782
11770,-0.404297,-0.280273,0.918091,-130.859375,55.969234,-147.705078
11781,-0.414795,-0.259033,0.923218,-116.027824,58.776852,-133.483887
11793,-0.421143,-0.242798,0.927856,-102.111809,59.509274,-121.765129
11804,-0.418335,-0.230835,0.927490,-82.580559,56.945797,-106.201164
11815,-0.413208,-0.230835,0.923706,-76.843262,56.945797,-101.135246
11827,-0.412231,-0.249268,0.924438,-75.195312,59.875484,-97.656242
11838,-0.405762,-0.261841,0.930542,-77.636719,65.246582,-94.360344
11850,-0.370728,-0.202881,0.947510,-80.139160,71.044922,-89.355461
11861,-0.364258,-0.170654,0.960938,-78.430176,75.256348,-82.153313
11872,-0.360352,-0.156616,0.968750,-71.594238,78.247070,-74.523926
11884,-0.345337,-0.154907,0.965820,-63.232418,81.726067,-68.603516
11895,-0.322388,-0.141602,0.956299,-56.762691,89.233391,-61.340328
11906,-0.298462,-0.109985,0.947754,-56.030270,89.965813,-57.922359
11918,-0.274780,-0.087769,0.948608,-54.626461,90.393059,-54.260250
11929,-0.239990,-0.043213,0.960205,-53.100582,91.247551,-49.987789
11941,-0.226318,-0.010498,0.971069,-49.194332,90.148918,-44.799801
11952,-0.223999,-0.008789,0.981934,-40.527340,86.914055,-38.513184
11963,-0.235840,-0.042480,0.991333,-29.724119,84.838860,-31.921385
11975,-0.242676,-0.078369,0.997803,-22.521971,87.585442,-26.489256
11986,-0.233276,-0.087891,0.995239,-24.108885,106.079094,-19.714355
11997,-0.215332,-0.070312,0.983276,-27.770994,111.938469,-18.066406
12009,-0.188232,-0.038330,0.970459,-29.113768,108.337395,-18.432617
12020,-0.127197,0.012207,0.977661,-26.916502,96.557610,-19.470215
12032,-0.110718,0.018921,0.991455,-21.362303,82.092278,-18.798828
12043,-0.104126,0.002930,1.006592,-14.160155,70.678711,-15.991210
12054,-0.091919,-0.020874,1.008911,-9.277344,65.368652,-13.061522
12066,-0.077026,-0.027832,0.998901,-9.643555,64.575195,-12.145995
12077,-0.065796,-0.018677,0.987183,-16.662598,63.415524,-14.648437
12088,-0.058228,-0.019897,0.984619,-18.737793,62.011715,-15.258788
12100,-0.061157,-0.035767,0.992188,-21.423338,61.523434,-14.343261
12111,-0.071533,-0.039429,1.014893,-23.803709,61.218258,-12.329101
12122,-0.066895,-0.027344,1.019653,-22.521971,59.814449,-9.948730
12134,-0.059204,-0.029907,1.023071,-16.296387,55.908199,-7.507324
12145,-0.053955,-0.049927,1.025757,-8.117676,49.499508,-5.310058
12156,-0.047485,-0.075684,1.029785,-0.915527,39.123535,-1.403808
12168,-0.036987,-0.090454,1.034180,-4.211426,38.818359,0.427246
12179,-0.024536,-0.076660,1.034424,-7.080078,41.076656,2.319336
12190,-0.011353,-0.043579,1.033936,-5.554199,44.860836,4.211426
12201,0.017212,-0.019287,1.042358,-1.037598,49.255367,6.286621
12212,0.034058,-0.024292,1.037720,3.417969,52.978512,8.117676
12224,0.052490,-0.032959,1.030029,5.798339,54.321285,9.033203
12235,0.070068,-0.034180,1.016602,4.699707,53.161617,8.728027
12246,0.088379,-0.029297,1.005615,-0.305176,49.438473,7.141113
12257,0.105591,-0.018433,1.002197,-12.878417,37.414551,3.906250
12268,0.116577,0.003052,0.999878,-11.901855,33.630371,4.943848
12280,0.120239,0.020874,1.001465,-5.493164,33.813477,7.934570
12291,0.118530,0.024414,1.000610,2.380371,37.170410,11.413573
12302,0.126221,0.002563,0.982422,7.507324,40.344234,12.756347
12313,0.140869,-0.010864,0.978149,6.042480,40.161129,11.413573
12324,0.153564,0.003540,0.971924,-0.915527,35.888672,8.666992
12336,0.163574,0.030029,0.971069,-6.591796,28.503416,5.920410
12347,0.164795,0.043213,0.972656,-6.530761,20.385740,4.150391
12358,0.161743,0.044678,0.968994,6.591796,8.728027,3.234863
12369,0.161987,0.036865,0.964478,13.793944,4.760742,4.089355
12380,0.157715,0.026855,0.963989,19.775391,1.831055,5.798339
12392,0.147339,0.015625,0.965210,24.536131,-0.305176,7.568359
12403,0.126099,-0.038208,0.967407,26.306150,-1.708984,8.300781
12414,0.117188,-0.069946,0.972046,22.766111,-1.892090,7.751464
12425,0.118164,-0.075684,0.978638,13.122558,-0.549316,6.042480
12437,0.128662,-0.048462,0.985840,0.427246,1.464844,4.089355
12448,0.141724,-0.002441,0.992432,-9.399414,2.441406,2.990722
12459,0.152222,0.038330,0.997925,-7.507324,-1.708984,3.234863
12470,0.157104,0.055908,1.004639,1.159668,-5.310058,3.479004
12481,0.155273,0.049805,1.009399,9.216309,-7.690429,3.601074
12493,0.152222,0.034058,1.011108,13.488769,-8.361816,3.356933
12504,0.140503,-0.000122,1.015625,13.305663,-7.446289,2.685547
12515,0.139160,-0.001099,1.014526,9.948730,-4.943848,1.342773
12526,0.144043,0.003418,1.012207,4.943848,-1.708984,-0.671387
12537,0.153564,0.008545,1.009521,-0.061035,0.793457,-2.563476
12549,0.162109,0.010986,1.007202,-3.356933,1.220703,-3.967285
12560,0.162842,0.011353,1.005005,-2.380371,-3.540039,-4.028320
12571,0.155640,0.005737,1.000610,0.793457,-5.737304,-3.356933
12582,0.147095,-0.009521,0.996704,2.929687,-6.103515,-2.807617
12593,0.142090,-0.029053,1.002075,2.746582,-4.577637,-2.441406
12605,0.144043,-0.026611,1.006226,1.708984,-1.892090,-1.892090
12616,0.144165,-0.024658,1.009277,1.342773,1.037598,-1.220703
12627,0.147461,-0.024902,1.009033,1.220703,3.356933,-0.610352
12638,0.154297,-0.022095,1.005981,0.732422,3.845215,-0.183105
12649,0.157104,-0.014038,1.002563,0.854492,2.380371,0.061035
12661,0.156738,-0.009033,0.998657,6.408691,-3.173828,0.610352
12672,0.153564,-0.015259,0.993286,10.375976,-5.615234,1.342773
12683,0.147705,-0.026855,0.986206,12.207030,-6.469726,1.831055
12694,0.134521,-0.047974,0.993042,10.131835,-5.065917,2.014160
12706,0.136719,-0.043335,1.000488,5.004883,-1.647949,2.258301
12717,0.145142,-0.024658,1.001343,-0.549316,2.197266,2.502441
12728,0.153442,-0.006958,0.997681,-4.272461,4.089355,2.197266
12739,0.155151,-0.000854,0.992554,-5.065917,2.990722,1.403808
12751,0.151855,-0.002930,0.986328,0.427246,-4.272461,0.427246
12762,0.144897,-0.010498,0.982422,4.577637,-7.019042,0.732422
12773,0.134399,-0.020020,0.982544,7.324218,-7.507324,1.403808
12784,0.126343,-0.024902,0.987671,7.446289,-5.920410,1.892090
12796,0.122070,-0.020020,1.001831,5.126953,-2.746582,2.136230
12807,0.121216,-0.015259,1.003052,1.831055,1.037598,2.441406
12818,0.123901,-0.012451,1.001709,-1.220703,4.089355,2.807617
12829,0.129272,-0.012573,1.002808,-3.234863,5.737304,2.868652
12840,0.132446,-0.014282,1.004517,-3.295898,6.042480,2.807617
12852,0.133423,-0.014648,1.002930,1.586914,4.760742,3.051758
12863,0.135986,-0.014526,1.000244,3.112793,3.356933,2.807617
12874,0.138916,-0.015503,0.998413,3.173828,1.770019,2.502441
12885,0.138916,-0.012207,0.996460,2.685547,0.732422,2.258301
12896,0.130005,-0.005249,1.000366,2.380371,0.732422,2.075195
12908,0.126831,-0.009399,1.002808,2.014160,2.197266,2.014160
12919,0.131348,-0.009277,1.000366,1.892090,4.699707,2.441406
12930,0.140625,-0.007324,0.994629,2.075195,6.835937,2.990722
12941,0.146362,-0.008911,0.989868,2.197266,7.629394,2.929687
12952,0.148682,-0.011597,0.987549,1.220703,5.249023,1.770019
12963,0.151001,-0.010010,0.986084,0.671387,3.173828,0.915527
12975,0.153442,-0.000977,0.986450,1.098633,1.281738,0.122070
12986,0.153809,0.009155,0.987915,2.624511,-0.183105,0.000000
12997,0.145874,-0.002319,0.986450,4.394531,-0.915527,0.244141
13008,0.141846,-0.012939,0.984741,5.126953,-0.610352,0.305176
13019,0.141968,-0.015259,0.983521,4.089355,0.793457,-0.122070
13031,0.145386,-0.015381,0.983154,1.892090,2.197266,-0.915527
13042,0.148804,-0.013550,0.984497,-0.610352,3.051758,-1.892090
13053,0.150024,-0.005737,0.987427,-2.380371,3.356933,-2.624511
13064,0.149780,0.001953,0.989990,-0.976562,3.356933,-2.014160
13076,0.149780,0.003784,0.989624,1.037598,2.685547,-1.403808
13087,0.155029,0.003784,0.983521,2.746582,0.976562,-1.647949
13098,0.159180,-0.002075,0.985474,3.784179,-1.586914,-2.746582
13109,0.158691,-0.013062,0.988159,4.089355,-3.967285,-3.967285
13120,0.153687,-0.022583,0.990356,3.906250,-4.943848,-4.516602
13132,0.146851,-0.027588,0.995850,3.356933,-4.089355,-4.150391
13143,0.141968,-0.029419,1.003906,2.502441,-1.525879,-3.051758
13154,0.141357,-0.028564,1.007935,1.770019,4.577637,-0.244141
13165,0.143433,-0.026123,1.009399,2.502441,6.225585,0.915527
13177,0.147095,-0.026367,1.010986,3.112793,6.591796,1.647949
13188,0.155640,-0.025024,1.008789,3.417969,5.798339,1.892090
13199,0.159058,-0.021851,1.004150,3.295898,4.333496,1.403808
13210,0.162231,-0.018799,0.998169,2.563476,2.502441,0.305176
13222,0.162109,-0.015991,0.993286,1.770019,0.976562,-0.732422
13233,0.158447,-0.015015,0.991577,1.525879,0.244141,-1.037598
13244,0.154297,-0.017700,0.991089,1.831055,1.464844,0.244141
13255,0.152466,-0.022217,0.988037,1.159668,2.746582,0.671387
13266,0.153442,-0.026245,0.983398,-0.122070,3.784179,0.671387
13278,0.156982,-0.028809,0.979126,-1.403808,4.211426,0.427246
13289,0.163818,-0.023193,0.973145,-2.075195,3.784179,0.305176
13300,0.163574,-0.020264,0.972412,-2.014160,2.502441,0.488281
13311,0.164185,-0.020020,0.973999,-1.708984,0.732422,0.671387
13322,0.165405,-0.019775,0.976929,-1.892090,-1.220703,0.488281
13334,0.163940,-0.013794,0.980835,-2.319336,-2.990722,-0.061035
13345,0.162964,-0.006104,0.987305,-0.244141,-4.516602,0.000000
13356,0.162964,-0.006592,0.993164,2.136230,-4.150391,0.976562
13367,0.159912,-0.016357,0.995605,3.479004,-3.112793,1.831055
13378,0.155151,-0.028198,0.997437,2.258301,-1.403808,1.892090
13389,0.153564,-0.031128,1.004883,-1.708984,0.732422,1.098633
13401,0.157715,-0.015259,1.008057,-6.652832,2.502441,-0.122070
13412,0.160278,0.004028,1.006714,-9.582520,3.173828,-1.159668
13423,0.160400,0.013916,1.003906,-8.911133,2.502441,-1.525879
13434,0.156860,0.005615,1.000488,-5.187988,1.220703,-1.281738
13445,0.152222,-0.008789,0.997803,2.014160,0.854492,0.000000
13457,0.150635,-0.011841,0.999146,3.234863,2.136230,0.976562
13468,0.154663,-0.005737,1.003296,4.333496,3.540039,1.892090
13479,0.161133,0.000732,1.004761,5.920410,4.272461,2.502441
13490,0.160767,-0.011841,0.992798,6.896972,4.211426,2.380371
13501,0.156372,-0.025513,0.985962,5.371093,4.028320,1.159668
13513,0.157349,-0.026489,0.987061,0.610352,4.638672,-0.671387
13524,0.163330,-0.011597,0.992065,-5.615234,6.103515,-2.380371
13535,0.171143,0.009766,0.995728,-9.765625,7.507324,-3.295898
13546,0.175781,0.022949,0.997192,-6.896972,7.934570,-2.868652
13558,0.171509,0.022095,0.997559,-3.356933,7.873535,-2.075195
13569,0.163330,0.011230,0.998413,-1.098633,8.483887,-1.525879
13580,0.158081,-0.008789,0.997803,-1.831055,9.704590,-1.525879
13591,0.161987,-0.037476,0.993408,-6.469726,11.169433,-2.014160
13602,0.168213,-0.029419,0.990845,-14.160155,11.596679,-2.929687
13614,0.177368,-0.010254,0.995972,-22.521971,10.498046,-3.967285
13625,0.184326,0.013428,1.006348,-28.808592,8.728027,-4.516602
13636,0.186401,0.036865,1.017090,-30.944822,7.812500,-4.028320
13648,0.186523,0.045898,1.025269,-24.719236,12.512206,-0.854492
13659,0.183105,0.036865,1.025757,-22.949217,17.395020,1.220703
13670,0.179321,0.024658,1.021606,-24.719236,22.705076,2.929687
13681,0.188965,0.030151,1.029053,-30.090330,27.770994,4.028320
13693,0.194824,0.048340,1.041138,-37.597656,33.203125,4.943848
13704,0.205200,0.076416,1.047852,-44.860836,39.184570,6.530761
13715,0.211670,0.101318,1.043945,-49.499508,45.227047,8.850098
13726,0.213257,0.124756,1.040405,-49.438473,51.208492,11.535644
13737,0.219360,0.155518,1.043701,-36.010742,67.749023,15.441894
13749,0.228638,0.182983,1.044312,-23.986814,79.467773,16.845703
13760,0.238403,0.196777,1.036011,-10.437011,91.430656,17.211914
13771,0.249268,0.188354,1.022461,0.671387,102.844231,15.441894
13782,0.274414,0.162476,0.991211,6.652832,114.562981,11.657714
13794,0.302612,0.162476,0.957520,6.774902,126.281731,7.751464
13805,0.349121,0.157959,0.919922,2.319336,133.666992,5.493164
13816,0.397217,0.152588,0.888672,-3.417969,132.751465,4.272461
13827,0.424438,0.164551,0.864990,-6.286621,124.938957,1.953125
13838,0.430176,0.192017,0.853638,4.211426,108.642570,-8.850098
13850,0.427246,0.206421,0.860718,14.831542,107.971184,-16.052246
13861,0.419922,0.201904,0.872803,29.479979,113.708488,-22.766111
13872,0.413208,0.205811,0.864624,50.659176,123.229973,-28.930662
13883,0.455200,0.190552,0.810913,76.110840,131.774902,-35.095215
13895,0.499878,0.150269,0.773315,101.318352,135.131836,-42.175289
13906,0.544434,0.129639,0.742554,125.244133,131.042480,-51.025387
13917,0.592407,0.136108,0.730469,150.695801,119.262688,-62.561031
13929,0.627319,0.139404,0.718872,223.937973,79.284668,-93.749992
13940,0.631470,0.104736,0.692627,269.226074,57.006832,-111.572258
13951,0.615234,0.036865,0.653198,308.471680,37.292480,-129.455566
13963,0.551270,-0.224121,0.614136,332.946747,23.010252,-144.592285
13974,0.520508,-0.363159,0.622192,338.928192,16.784668,-153.503418
13986,0.500244,-0.446533,0.613525,329.650848,17.883301,-155.700684
13997,0.481323,-0.498901,0.586670,315.307617,22.216795,-153.747559
14008,0.471313,-0.562012,0.567993,302.978516,26.550291,-150.085449
14020,0.475220,-0.621948,0.555054,274.169922,31.677244,-141.113281
14031,0.482666,-0.664673,0.535645,258.178711,31.066893,-137.268066
14042,0.489746,-0.679688,0.507080,245.361313,27.160643,-135.375977
14054,0.468140,-0.689453,0.458496,237.548813,21.423338,-135.498047
14065,0.452637,-0.711182,0.453369,234.802231,17.150879,-136.291504
14077,0.438232,-0.734619,0.437256,235.229477,16.601562,-135.864258
14088,0.441895,-0.739014,0.404419,239.135727,18.676758,-134.643555
14099,0.447876,-0.743408,0.352783,246.459946,19.042969,-135.864258
14111,0.428955,-0.773193,0.302002,255.798325,8.911133,-151.733398
14122,0.389648,-0.825806,0.260254,251.220688,5.249023,-159.606934
14133,0.344360,-0.878784,0.223633,245.666489,7.324218,-161.804184
14145,0.277344,-0.941406,0.162842,241.577133,13.366698,-157.592773
14156,0.262329,-0.964600,0.120972,236.755356,20.446775,-149.047852
14168,0.253296,-0.967407,0.077393,230.834946,25.573729,-140.319824
14179,0.244751,-0.955933,0.036011,224.182114,27.587889,-134.826660
14190,0.230347,-0.938354,-0.008179,212.707504,24.047850,-135.803223
14202,0.202026,-0.948975,-0.046021,206.909164,21.789549,-137.451172
14213,0.166016,-0.981079,-0.082764,197.936996,20.996092,-136.108398
14224,0.138062,-1.000977,-0.124268,187.255844,20.446775,-131.530762
14236,0.114380,-0.964722,-0.203979,179.870590,18.371582,-125.488274
14247,0.099487,-0.950073,-0.230957,179.870590,14.099120,-120.727531
14258,0.077637,-0.957520,-0.253540,184.204086,8.605957,-118.896477
14270,0.047852,-0.966064,-0.280396,186.767563,3.417969,-119.812004
14281,0.014526,-0.974121,-0.308716,178.588852,-2.563476,-121.520988
14292,-0.011230,-0.983521,-0.336548,168.518051,-3.234863,-118.225090
14304,-0.029785,-0.979614,-0.364868,157.287598,-3.723144,-113.220207
14315,-0.045654,-0.954346,-0.390991,149.963379,-4.638672,-108.581535
14326,-0.062500,-0.882080,-0.431030,151.245117,-6.042480,-105.407707
14338,-0.060669,-0.856934,-0.455322,160.278320,-8.178711,-104.309074
14349,-0.060425,-0.849854,-0.484375,172.485336,-11.413573,-105.834953
14360,-0.065308,-0.863647,-0.516357,181.579575,-15.563964,-109.191887
14372,-0.084106,-0.879761,-0.546997,173.889145,-23.803709,-114.013664
14383,-0.116943,-0.876465,-0.571167,159.545898,-26.611326,-112.670891
14394,-0.158936,-0.844116,-0.593994,147.888184,-28.320311,-109.374992
14406,-0.189697,-0.803833,-0.619873,145.080566,-29.724119,-106.445305
14417,-0.187378,-0.752808,-0.641357,149.841309,-31.433104,-106.018059
14429,-0.173462,-0.728027,-0.639648,156.616211,-32.897949,-109.863274
14440,-0.150146,-0.680176,-0.650269,162.109360,-33.874512,-118.164055
14451,-0.131836,-0.624512,-0.678955,168.029770,-36.010742,-130.126953
14463,-0.144897,-0.603516,-0.716064,178.222641,-47.058102,-156.494141
14474,-0.196655,-0.627319,-0.760498,171.508774,-52.551266,-163.207993
14485,-0.270020,-0.662598,-0.813110,156.860352,-55.847164,-160.400391
14497,-0.358154,-0.631714,-0.852905,144.165039,-56.640621,-148.742676
14508,-0.339111,-0.641602,-0.828735,139.587402,-54.382320,-131.774902
14519,-0.299683,-0.651489,-0.818848,137.695312,-49.316402,-112.060539
14531,-0.266479,-0.635132,-0.839111,132.019043,-44.433590,-92.651360
14542,-0.241333,-0.597168,-0.888916,123.352043,-43.701168,-78.063965
14554,-0.216064,-0.561646,-0.936646,106.445305,-62.561031,-70.068359
14565,-0.210449,-0.534668,-0.953247,99.121086,-77.087402,-72.814941
14576,-0.229980,-0.491943,-0.942749,94.909660,-88.378899,-76.538086
14588,-0.257446,-0.430908,-0.913940,95.581047,-93.811028,-78.918457
14599,-0.238892,-0.415527,-0.917480,100.158684,-94.360344,-78.247070
14611,-0.205933,-0.409302,-0.935547,106.445305,-93.688957,-74.707031
14622,-0.182739,-0.422485,-0.962646,110.168449,-95.031731,-69.580078
14633,-0.186646,-0.429077,-0.990234,86.608879,-105.041496,-59.387203
14645,-0.213013,-0.415894,-1.004272,59.814449,-109.619133,-55.358883
14656,-0.235962,-0.389648,-1.006470,35.217285,-110.595695,-51.452633
14668,-0.219116,-0.309204,-0.995728,21.545408,-107.910149,-47.729488
14679,-0.173096,-0.302368,-0.982422,18.493652,-103.149406,-44.555660
14690,-0.117188,-0.315674,-0.990234,19.226074,-99.304192,-42.175289
14702,-0.055298,-0.326416,-1.011719,18.127441,-100.036613,-40.893551
14713,0.004761,-0.321045,-1.022339,13.488769,-107.849113,-41.748043
14725,0.033081,-0.302979,-1.027466,1.647949,-140.319824,-50.842281
14736,-0.009521,-0.312744,-1.049072,-7.263183,-155.761719,-57.983395
14747,-0.114136,-0.365112,-1.085205,-24.719236,-161.499008,-63.842770
14759,-0.188232,-0.465210,-1.025269,-51.879879,-152.099609,-63.537594
14770,-0.090454,-0.467896,-0.944946,-81.420891,-130.065918,-55.541988
14781,0.040771,-0.469849,-0.917114,-104.675285,-106.445305,-43.457027
14793,0.145386,-0.477295,-0.948120,-121.276848,-94.543449,-33.203125
14804,0.188477,-0.468262,-0.986694,-136.230469,-101.135246,-29.907225
14816,0.162720,-0.440796,-0.988647,-158.142090,-145.202637,-45.288082
14827,0.091797,-0.425903,-0.959839,-155.029297,-158.142090,-55.664059
14838,0.010986,-0.460571,-0.925415,-148.254395,-153.137207,-60.485836
14850,-0.036987,-0.698120,-0.843994,-154.541016,-129.760742,-57.495113
14861,0.029663,-0.837280,-0.815063,-187.255844,-94.970695,-47.607418
14872,0.142578,-0.882568,-0.828857,-245.788559,-61.767574,-34.057617
14884,0.251709,-0.796997,-0.856323,-312.316895,-45.837399,-21.850584
14895,0.303101,-0.687012,-0.849243,-379.150360,-83.496086,-14.038085
14907,0.272461,-0.614136,-0.799927,-357.849091,-113.708488,-18.798828
14918,0.194946,-0.563599,-0.739136,-306.335449,-132.324219,-28.442381
14929,0.124023,-0.559204,-0.677124,-245.300278,-134.216309,-41.015621
14941,0.119873,-0.775513,-0.539062,-199.890121,-121.520988,-52.612301
14952,0.172607,-0.937744,-0.491333,-188.171371,-102.050774,-59.326168
14964,0.218506,-1.043823,-0.464844,-213.012680,-83.740227,-60.119625
14975,0.249390,-1.021973,-0.460449,-259.948730,-70.190430,-58.166500
14986,0.265991,-0.895264,-0.447998,-323.486298,-68.420410,-62.011715
14998,0.254272,-0.764648,-0.389526,-308.288574,-77.819824,-69.824219
15009,0.215088,-0.690796,-0.309570,-267.456055,-86.608879,-78.552246
15020,0.177368,-0.782593,-0.191040,-216.430649,-93.017570,-85.693352
15032,0.167236,-0.892212,-0.152344,-174.316391,-96.618645,-91.125481
15043,0.148193,-0.989990,-0.116211,-159.484863,-95.947258,-95.031731
15055,0.136230,-1.029297,-0.082886,-174.987778,-89.843742,-97.473137
15066,0.133057,-1.021240,-0.056396,-208.129868,-79.650879,-99.365227
15077,0.125366,-0.973877,-0.029541,-260.070801,-61.584469,-107.666008
15089,0.107300,-0.910156,0.013306,-263.000488,-56.701656,-115.539543
15100,0.084839,-0.871338,0.066284,-255.310043,-51.818844,-123.413078
15112,0.054810,-0.875977,0.172729,-244.934067,-45.959469,-128.417969
15123,0.038208,-0.875244,0.223267,-235.351547,-37.963867,-129.089355
15134,0.017578,-0.863281,0.265259,-227.905258,-28.015135,-127.075188
15146,-0.009033,-0.843872,0.306763,-222.961411,-18.249512,-125.122063
15157,-0.035400,-0.823364,0.349365,-215.454086,-4.577637,-126.281731
15168,-0.062256,-0.809692,0.382568,-213.623032,-0.610352,-129.577637
15180,-0.084473,-0.804321,0.396484,-215.393051,1.464844,-134.460449
15191,-0.109375,-0.793701,0.445801,-222.045883,2.319336,-140.625000
15203,-0.120239,-0.746216,0.496948,-230.651840,4.577637,-146.484375
15214,-0.131836,-0.678101,0.540405,-234.191879,9.155273,-150.329590
15225,-0.145630,-0.638306,0.570068,-229.186996,14.038085,-151.916504
15237,-0.164551,-0.624756,0.592896,-217.773422,17.211914,-150.939941
15248,-0.183472,-0.610474,0.611084,-193.664536,21.057127,-143.676758
15259,-0.202515,-0.593262,0.636108,-189.270004,21.972654,-141.540527
15271,-0.224854,-0.575439,0.665161,-188.903793,22.033689,-141.540527
15282,-0.258057,-0.521118,0.700317,-188.476547,20.751951,-143.371582
15294,-0.272339,-0.506470,0.727295,-187.499985,19.287109,-146.850586
15305,-0.284912,-0.485718,0.756104,-187.011703,20.019531,-150.207520
15316,-0.291504,-0.456665,0.785278,-186.096176,23.986814,-151.428223
15328,-0.296753,-0.424316,0.812500,-183.044418,30.273436,-149.475098
15339,-0.302002,-0.385010,0.842041,-163.818344,46.325680,-135.925293
15350,-0.306396,-0.343994,0.879639,-148.193359,55.603024,-125.915520
15362,-0.311157,-0.310547,0.917236,-133.056641,65.612793,-115.417473
15373,-0.320679,-0.272705,0.940063,-122.741692,74.645996,-107.177727
15385,-0.325073,-0.261230,0.927490,-119.018547,80.200195,-103.393547
15396,-0.322144,-0.252563,0.916016,-121.520988,80.871574,-104.797356
15407,-0.310791,-0.230835,0.916626,-127.990715,76.843262,-109.680168
15419,-0.293213,-0.184814,0.931519,-134.277344,61.401363,-113.952629
15430,-0.276245,-0.134033,0.954834,-125.610344,54.809566,-107.666008
15441,-0.265259,-0.103394,0.979980,-108.398430,51.696774,-96.801750
15453,-0.260132,-0.092896,0.996826,-87.280266,52.429195,-83.862297
15464,-0.258911,-0.097290,0.996216,-66.955566,54.870602,-71.472168
15475,-0.255615,-0.120239,1.000000,-52.001949,57.556149,-62.072750
15487,-0.247925,-0.127808,1.001221,-45.166012,60.363766,-56.030270
15498,-0.238525,-0.112793,0.991333,-45.288082,62.255856,-52.368160
15510,-0.233398,-0.094604,0.973633,-50.659176,54.321285,-49.926754
15521,-0.225830,-0.085938,0.967896,-51.757809,46.936031,-49.926754
15532,-0.213989,-0.076416,0.980347,-51.025387,42.358395,-48.645016
15544,-0.193237,-0.026123,1.009399,-46.203609,41.870113,-45.532223
15555,-0.180786,-0.014771,1.013428,-36.499023,44.494625,-40.222164
15567,-0.173950,-0.025635,1.014404,-24.719236,49.438473,-33.081055
15578,-0.173706,-0.050171,1.009521,-15.686034,56.213375,-26.550291
15589,-0.173218,-0.070801,0.998413,-13.793944,63.171383,-23.986814
15601,-0.165405,-0.064453,0.992188,-31.860350,68.298340,-32.348633
15612,-0.149658,-0.025635,0.993164,-41.259762,63.903805,-37.780762
15623,-0.129028,0.021484,0.998657,-43.701168,56.091305,-39.794922
15635,-0.104980,0.072266,1.028687,-37.353516,48.217770,-37.353516
15646,-0.109741,0.052734,1.041138,-23.803709,43.945309,-31.127928
15658,-0.115356,0.012939,1.038330,-8.300781,45.166012,-23.193357
15669,-0.117798,-0.024536,1.031128,2.624511,51.086422,-16.540527
15680,-0.115234,-0.051147,1.028687,5.004883,59.326168,-13.183593
15691,-0.103027,-0.054932,1.027588,-11.596679,72.692871,-15.014647
15703,-0.082886,-0.028564,1.022461,-18.554688,73.303223,-16.418457
15714,-0.056519,0.010010,1.017090,-17.883301,68.542480,-16.174316
15725,-0.011597,0.058960,1.002319,-10.070800,59.814449,-13.488769
15737,-0.003296,0.046387,0.983398,1.647949,49.316402,-9.338379
15748,-0.001587,0.016113,0.968506,11.535644,39.428711,-5.493164
15759,0.000610,-0.009277,0.970459,14.770507,31.799314,-3.173828
15770,0.001953,-0.021851,0.983398,12.084960,27.893064,-1.953125
15782,0.003052,-0.024292,0.996094,6.469726,31.982420,-0.427246
15793,0.006226,-0.024536,1.003662,5.493164,36.560059,0.244141
15804,0.013184,-0.021118,1.006958,5.065917,40.222164,0.793457
15815,0.030151,-0.007812,1.000732,5.981445,41.564938,1.159668
15827,0.037476,-0.005859,0.989014,7.995605,39.855957,1.403808
15838,0.045166,-0.006104,0.976074,10.070800,35.705566,1.647949
15849,0.050659,-0.011108,0.972900,11.413573,31.127928,1.525879
15860,0.051758,-0.016846,0.985718,10.803222,28.686522,1.403808
15872,0.053955,-0.012451,1.000244,8.483887,29.907225,2.014160
15883,0.061890,0.002319,1.008301,9.521484,37.292480,4.699707
15894,0.072266,0.005615,1.009155,13.549804,38.452148,5.432128
15905,0.080078,-0.007202,1.001343,16.418457,37.292480,5.493164
15916,0.093262,-0.028809,0.996216,15.747069,34.545898,4.455566
15928,0.104248,-0.017822,1.000000,12.329101,30.883787,2.868652
15939,0.113525,0.002686,0.997314,10.070800,26.672361,1.586914
15950,0.117188,0.008789,0.990112,12.207030,22.094725,1.037598
15961,0.116211,-0.003296,0.988159,17.639160,18.249512,0.610352
15973,0.113159,-0.020386,0.991943,26.245115,18.310547,0.122070
15984,0.111084,-0.039062,0.993042,26.855467,21.362303,-0.427246
15995,0.111694,-0.062622,0.993652,23.193357,24.169920,-1.647949
16006,0.118042,-0.081543,0.995972,14.770507,25.207518,-3.540039
16018,0.152954,-0.055786,0.995483,5.249023,23.071287,-5.371093
16029,0.163940,-0.025757,0.993164,-0.366211,17.639160,-6.713867
16040,0.166504,-0.005859,0.990234,0.854492,10.498046,-7.080078
16051,0.163208,-0.007568,0.985840,8.117676,4.089355,-6.469726
16063,0.158081,-0.026001,0.981812,17.333984,0.549316,-5.371093
16074,0.153320,-0.051392,0.983765,26.000975,2.929687,-2.929687
16085,0.148315,-0.075317,0.986694,23.437498,7.080078,-1.953125
16096,0.148193,-0.088989,0.987061,17.456055,11.352538,-1.708984
16108,0.164673,-0.079468,0.983154,9.887695,13.916015,-2.319336
16119,0.172729,-0.068726,0.979736,3.295898,13.610839,-3.479004
16130,0.180664,-0.060059,0.975098,-1.342773,10.131835,-4.760742
16141,0.184326,-0.057495,0.970459,-3.906250,4.150391,-5.737304
16153,0.179688,-0.058594,0.967896,-3.723144,-2.807617,-5.920410
16164,0.171509,-0.056152,0.967529,6.103515,-10.742187,-2.624511
16175,0.164429,-0.056396,0.971924,13.305663,-10.375976,-0.183105
16186,0.156616,-0.068359,0.978760,17.761230,-8.422852,1.892090
16198,0.146973,-0.091553,0.982178,17.639160,-6.103515,3.417969
16209,0.141724,-0.114502,0.981079,12.573241,-4.455566,4.211426
16220,0.140503,-0.112793,0.980835,4.577637,-4.211426,4.211426
16231,0.139404,-0.104492,0.981323,-3.356933,-5.249023,3.479004
16242,0.142334,-0.079590,0.981812,-8.972168,-6.652832,2.319336
16254,0.143799,-0.051514,0.987305,-10.803222,-8.361816,1.098633
16265,0.139404,-0.035400,0.999512,-0.854492,-10.681151,1.098633
16276,0.132812,-0.033203,1.011353,8.178711,-9.643555,2.685547
16287,0.129761,-0.040771,1.019043,14.892577,-7.507324,4.333496
16298,0.125854,-0.059448,1.022217,16.418457,-5.249023,5.065917
16310,0.119019,-0.091797,1.018555,12.634276,-3.051758,4.760742
16321,0.125000,-0.085938,1.015381,5.615234,-1.281738,3.295898
16332,0.128540,-0.070190,1.011475,-1.037598,-0.366211,1.159668
16343,0.125732,-0.053833,1.006714,-4.333496,-0.610352,-0.732422
16355,0.119995,-0.047729,1.000610,-3.112793,-1.831055,-1.586914
16366,0.117920,-0.052368,0.996826,7.324218,-2.258301,-0.976562
16377,0.120117,-0.064331,0.997925,10.864257,0.061035,-0.183105
16388,0.121582,-0.079590,1.000977,10.864257,2.563476,0.610352
16399,0.123413,-0.103394,0.998535,7.385253,4.272461,0.732422
16411,0.131592,-0.092773,0.994019,1.647949,5.004883,-0.244141
16422,0.137695,-0.075928,0.993408,-3.601074,4.882812,-1.708984
16433,0.140015,-0.062622,0.996338,-5.310058,3.906250,-2.441406
16445,0.140747,-0.059814,0.998413,-2.929687,2.014160,-2.014160
16456,0.140259,-0.067871,0.996826,5.065917,-3.417969,-0.732422
16467,0.140747,-0.077881,0.991577,7.141113,-4.882812,-0.793457
16478,0.138184,-0.086304,0.988281,7.507324,-5.065917,-0.671387
16490,0.130737,-0.091675,0.992065,6.896972,-4.211426,-0.122070
16501,0.123047,-0.097534,1.000000,5.920410,-2.441406,0.427246
16512,0.124023,-0.096924,1.002197,4.028320,-0.366211,0.610352
16523,0.124756,-0.094482,1.006714,1.403808,1.464844,0.488281
16534,0.125366,-0.092529,1.012207,-0.549316,2.563476,0.488281
16546,0.124634,-0.092285,1.010986,-1.098633,2.990722,0.732422
16557,0.127441,-0.088867,1.006592,0.061035,3.417969,0.366211
16568,0.131104,-0.084106,1.005615,0.976562,4.150391,0.000000
16579,0.133301,-0.079224,1.006958,2.563476,4.760742,0.427246
16590,0.137329,-0.074707,1.008057,4.394531,4.272461,1.464844
16602,0.140869,-0.084473,0.998779,5.249023,2.685547,2.380371
16613,0.139648,-0.087280,0.991211,4.211426,0.915527,2.746582
16624,0.141113,-0.082642,0.987427,2.380371,0.183105,2.258301
16635,0.141113,-0.081909,0.989502,1.098633,0.549316,1.098633
16646,0.140381,-0.081665,0.990845,0.244141,1.647949,-0.122070
16658,0.142944,-0.076660,0.988892,-0.183105,2.868652,-1.098633
16669,0.147217,-0.064819,0.984253,0.427246,2.929687,-1.281738
16680,0.151001,-0.051880,0.982910,1.892090,3.051758,-1.586914
16691,0.148926,-0.066895,0.990723,3.662109,3.662109,-1.708984
16703,0.147217,-0.081543,0.991699,5.065917,4.699707,-1.586914
16714,0.150269,-0.090576,0.988770,5.615234,5.493164,-1.464844
16725,0.154907,-0.091797,0.986328,5.126953,5.249023,-1.525879
16736,0.156372,-0.090088,0.985352,3.723144,4.028320,-1.831055
16747,0.155640,-0.088745,0.983521,1.953125,2.441406,-2.197266
16759,0.153564,-0.084717,0.980347,0.366211,-0.549316,-1.586914
16770,0.152588,-0.080078,0.979492,1.892090,-2.014160,-0.976562
16781,0.151489,-0.080200,0.980591,4.150391,-3.112793,-0.244141
16792,0.140869,-0.094238,0.982056,5.798339,-3.540039,0.366211
16803,0.136841,-0.100342,0.983643,5.615234,-3.051758,0.610352
16815,0.136475,-0.099121,0.987427,3.234863,-1.831055,0.305176
16826,0.138916,-0.091187,0.992310,0.305176,-0.793457,-0.183105
16837,0.138306,-0.083740,0.996094,-1.342773,-0.366211,-0.488281
16848,0.134644,-0.082153,0.998535,-1.037598,-0.610352,-0.427246
16859,0.132080,-0.084595,0.997925,2.441406,-1.220703,0.061035
16871,0.131836,-0.084106,0.994263,4.638672,-1.220703,0.000000
16882,0.134155,-0.081299,0.991211,7.080078,-1.159668,-0.061035
16893,0.136230,-0.093262,0.986450,9.277344,-1.159668,0.061035
16904,0.136475,-0.107544,0.983032,10.070800,-1.220703,0.061035
16915,0.136353,-0.117188,0.981445,8.117676,-1.098633,-0.244141
16927,0.135986,-0.115356,0.984009,4.028320,-0.488281,-0.793457
16938,0.135498,-0.103271,0.988647,0.061035,0.427246,-0.976562
16949,0.137329,-0.091675,0.991333,-1.586914,1.159668,-0.854492
16960,0.140625,-0.089600,0.990845,0.976562,1.403808,0.183105
16971,0.142212,-0.093994,0.988770,2.258301,0.854492,0.976562
16983,0.142578,-0.095703,0.984497,2.746582,0.061035,1.281738
16994,0.146362,-0.087280,0.985474,2.746582,-0.427246,0.915527
17005,0.148438,-0.087524,0.988403,1.953125,-0.122070,0.183105
17016,0.152832,-0.085327,0.990723,0.854492,0.427246,-0.305176
17028,0.155518,-0.086182,0.991455,0.000000,0.366211,-0.427246
17039,0.152344,-0.087402,0.990967,-0.366211,-0.610352,-0.488281
17050,0.147339,-0.084229,0.992920,-0.610352,-1.525879,-1.770019
17061,0.142822,-0.084351,0.999146,-0.671387,-0.610352,-2.258301
17072,0.139282,-0.089233,1.004028,0.000000,0.305176,-2.075195
17083,0.137207,-0.094604,1.003296,1.220703,0.549316,-1.342773
17095,0.135620,-0.098633,0.994507,2.502441,0.427246,-0.671387
17106,0.135864,-0.104248,0.995239,3.295898,0.793457,-0.488281
17117,0.135986,-0.111694,0.998047,2.807617,2.014160,-0.610352
17128,0.139160,-0.113892,0.998047,0.915527,3.601074,-0.549316
17139,0.147095,-0.105591,0.994751,-2.014160,4.882812,-0.366211
17151,0.154053,-0.092896,0.991577,-6.652832,4.455566,-0.427246
17162,0.156738,-0.082153,0.989746,-5.676269,3.234863,-0.244141
17173,0.158081,-0.076416,0.987305,-2.319336,1.708984,0.244141
17184,0.157104,-0.080688,0.984863,1.586914,-0.061035,0.610352
17196,0.147095,-0.107056,0.984741,4.150391,-1.586914,0.610352
17207,0.145752,-0.112183,0.983398,4.150391,-2.197266,0.366211
17218,0.145386,-0.110840,0.984497,1.770019,-1.831055,0.000000
17229,0.144043,-0.105103,0.987671,-1.403808,-0.793457,-0.183105
17240,0.143677,-0.095825,0.989868,-3.662109,0.366211,0.122070
17252,0.144653,-0.088257,0.990112,-3.967285,0.427246,1.220703
17263,0.145752,-0.083496,0.989136,-2.624511,-0.732422,1.525879
17274,0.147339,-0.078369,0.986084,-0.183105,-2.136230,1.403808
17285,0.149780,-0.076660,0.984253,2.502441,-3.173828,1.159668
17296,0.145020,-0.097290,0.984009,4.028320,-3.173828,0.915527
17308,0.144165,-0.099487,0.983398,3.112793,-2.075195,0.732422
17319,0.146118,-0.092041,0.984497,0.305176,-0.427246,0.488281
17330,0.150146,-0.081421,0.985474,-2.075195,1.037598,0.427246
17341,0.153564,-0.076416,0.985718,-2.441406,1.525879,0.610352
17353,0.152588,-0.081543,0.983765,0.061035,-1.159668,1.037598
17364,0.150269,-0.091675,0.979614,0.732422,-3.295898,0.976562
17375,0.148682,-0.099365,0.978027,0.488281,-4.760742,0.915527
17387,0.143188,-0.097046,0.980835,-0.305176,-5.249023,1.159668
17398,0.140259,-0.091553,0.984497,-1.281738,-4.943848,1.708984
17409,0.137451,-0.091675,0.990479,-2.563476,-4.028320,1.892090
17420,0.134155,-0.103516,0.996704,-5.249023,-2.258301,1.525879
17431,0.132446,-0.114502,1.002563,-10.864257,0.671387,0.732422
17443,0.134399,-0.111816,1.008301,-29.235838,10.253905,-0.427246
17454,0.137085,-0.101440,1.015137,-39.367676,16.296387,-0.793457
17465,0.137817,-0.091797,1.022949,-50.354000,23.437498,-1.342773
17477,0.134888,-0.087769,1.025879,-63.598629,31.677244,-2.563476
17488,0.132935,-0.097534,1.020630,-80.505363,41.137691,-4.455566
17499,0.133057,-0.085449,1.015869,-101.928703,53.222652,-6.286621
17510,0.144531,-0.044067,1.014893,-125.854485,68.481445,-6.958007
17522,0.171265,0.033691,1.016113,-148.315430,85.021965,-6.164550
17533,0.201782,0.112427,1.015869,-164.428696,109.436028,-3.967285
17544,0.237183,0.185547,1.014893,-155.822754,113.891594,-4.394531
17556,0.270142,0.250488,1.002197,-140.380859,113.403313,-6.530761
17567,0.296387,0.283203,0.985229,-117.004387,109.313957,-9.094238
17579,0.342773,0.288940,0.958496,-89.721672,104.248039,-10.864257
17590,0.350586,0.285278,0.926880,-66.162109,99.548332,-11.962890
17601,0.357666,0.292847,0.885498,-48.278805,94.421379,-13.671874
17612,0.369141,0.294556,0.857056,-33.203125,88.317863,-15.991210
17624,0.380005,0.283691,0.845703,-4.760742,80.932610,-17.456055
17635,0.391846,0.283203,0.841553,9.460449,81.603996,-17.333984
17646,0.403931,0.305664,0.839355,25.085447,83.801262,-18.737793
17657,0.416992,0.324341,0.841675,42.602535,86.486809,-21.728514
17669,0.451416,0.283325,0.839111,59.570309,88.928215,-26.062010
17680,0.460083,0.235229,0.831421,72.570801,90.209953,-32.287598
17691,0.466675,0.206177,0.821289,78.979492,90.454094,-40.283199
17702,0.468262,0.222778,0.809570,80.993645,90.209953,-48.522945
17714,0.479858,0.272949,0.808350,87.646477,90.454094,-56.457516
17725,0.516235,0.319702,0.819824,151.184082,87.646477,-70.434570
17736,0.560181,0.335327,0.822632,216.979965,78.063965,-80.749504
17748,0.578735,0.299194,0.800171,293.273926,63.537594,-96.069328
17759,0.560425,0.054199,0.702148,356.567352,48.645016,-114.257805
17770,0.549561,-0.131836,0.669922,389.038055,36.621094,-131.164551
17782,0.531616,-0.322510,0.661377,382.995575,29.174803,-142.578125
17793,0.522705,-0.440063,0.662109,344.299286,27.160643,-146.301270
17804,0.523560,-0.456543,0.666748,292.541504,29.418943,-143.127441
17816,0.519775,-0.420166,0.671265,235.046371,36.010742,-126.647942
17827,0.497437,-0.408203,0.665894,239.807114,37.719727,-120.666496
17838,0.460327,-0.488647,0.652588,247.985825,41.015621,-116.577141
17850,0.439453,-0.733154,0.610596,240.417465,47.485348,-112.304680
17861,0.462646,-0.752930,0.571655,212.463364,54.138180,-107.421867
17872,0.492310,-0.715820,0.536133,176.635727,56.274410,-102.355949
17884,0.507935,-0.669556,0.509521,151.062012,52.429195,-97.778313
17895,0.501221,-0.637207,0.492188,145.080566,43.518063,-95.092766
17907,0.471436,-0.633545,0.471924,175.109848,24.414061,-103.332512
17918,0.431030,-0.677124,0.447266,195.983871,21.057127,-114.440910
17929,0.410278,-0.744751,0.420044,209.106430,21.545408,-125.549309
17941,0.436768,-0.806641,0.352173,212.280258,21.057127,-133.728027
17952,0.437866,-0.792969,0.321533,214.294418,15.991210,-139.526367
17964,0.409546,-0.773682,0.298584,223.937973,7.019042,-145.935059
17975,0.353149,-0.760620,0.266724,244.018539,-1.525879,-155.761719
17986,0.279663,-0.797607,0.233154,294.006348,-2.197266,-180.847153
17998,0.225586,-0.889771,0.193481,299.255371,7.629394,-186.157211
18009,0.214111,-0.970825,0.132568,286.621094,17.333984,-183.471664
18020,0.226685,-0.979614,0.008545,270.690918,20.690916,-176.330551
18032,0.205322,-0.989624,-0.030273,262.512207,17.272949,-169.433578
18043,0.181152,-0.971558,-0.068237,261.291504,10.314940,-165.893539
18055,0.146362,-0.927124,-0.117432,262.878418,2.014160,-168.457016
18066,0.084229,-0.908936,-0.171387,267.150879,-5.981445,-176.940903
18077,0.013184,-0.925415,-0.223877,269.897461,-8.789062,-188.110336
18089,-0.036011,-0.949585,-0.281372,260.803223,-5.432128,-183.166489
18100,-0.056274,-0.959961,-0.343750,249.328598,-4.577637,-173.095688
18111,-0.060791,-0.946655,-0.429443,240.600571,-7.751464,-162.414536
18123,-0.062378,-0.923462,-0.445679,235.961899,-13.244628,-155.334473
18134,-0.052979,-0.889282,-0.465942,234.985336,-19.226074,-152.893066
18146,-0.040039,-0.860107,-0.502075,235.900864,-25.512693,-152.954102
18157,-0.057739,-0.830688,-0.552002,236.083969,-33.325195,-154.235840
18168,-0.122070,-0.811768,-0.592041,231.872543,-48.400875,-155.273438
18180,-0.200195,-0.802979,-0.613525,226.867661,-49.926754,-151.855469
18191,-0.242554,-0.769653,-0.636108,223.327621,-48.828121,-145.874023
18202,-0.238037,-0.722046,-0.706177,221.496567,-48.278805,-139.160156
18214,-0.228516,-0.729370,-0.749756,217.346176,-49.743649,-133.117676
18225,-0.220093,-0.697266,-0.784790,209.594711,-53.222652,-128.417969
18237,-0.220947,-0.619507,-0.802734,203.247055,-58.532711,-126.342766
18248,-0.233887,-0.578003,-0.804810,210.510239,-67.810059,-132.568359
18259,-0.249023,-0.602539,-0.810547,213.134750,-68.420410,-136.657715
18271,-0.261230,-0.620117,-0.836792,209.472641,-68.176270,-138.732910
18282,-0.258423,-0.584229,-0.868896,203.613266,-68.969727,-137.878418
18293,-0.247559,-0.471924,-0.906616,200.927719,-71.044922,-134.399414
18305,-0.273560,-0.503174,-0.910889,200.012192,-72.387695,-128.784180
18316,-0.286011,-0.533447,-0.926880,190.185532,-70.861816,-119.750969
18327,-0.263672,-0.516113,-0.963623,167.114243,-67.932129,-106.018059
18339,-0.231201,-0.482788,-1.001587,113.281242,-74.340820,-71.838379
18350,-0.219604,-0.447632,-1.027222,94.970695,-83.801262,-56.945797
18361,-0.236694,-0.402222,-1.032104,84.472649,-91.308586,-46.081539
18373,-0.259155,-0.353394,-1.019287,80.810539,-93.383781,-40.405270
18384,-0.243896,-0.288696,-1.010986,81.542961,-90.637199,-39.428711
18396,-0.212769,-0.280762,-1.030029,83.557121,-86.486809,-41.320797
18407,-0.174072,-0.262939,-1.066406,83.007805,-84.350578,-43.823238
18418,-0.123291,-0.220093,-1.096191,80.200195,-87.036125,-45.227047
18430,-0.081421,-0.199829,-1.107422,78.735352,-109.497063,-45.349117
18441,-0.063232,-0.219604,-1.106445,72.265625,-123.962395,-45.837399
18452,-0.069824,-0.234863,-1.106079,58.776852,-136.352539,-47.668453
18464,-0.129517,-0.208862,-1.151123,44.006344,-144.958496,-50.354000
18475,-0.131958,-0.211304,-1.124512,31.494139,-147.460938,-52.001949
18486,-0.092896,-0.212402,-1.078369,20.263670,-142.761230,-51.879879
18498,-0.027466,-0.200806,-1.047119,10.009766,-134.216309,-51.391598
18509,0.032837,-0.182983,-1.036133,2.746582,-127.502434,-52.551266
18520,0.067139,-0.182129,-1.042114,-2.624511,-128.967285,-59.204098
18532,0.078735,-0.205444,-1.049927,-8.911133,-133.728027,-62.561031
18543,0.082642,-0.245361,-1.047241,-23.132322,-137.390137,-64.758301
18555,0.078369,-0.311401,-1.042480,-45.104977,-138.977051,-66.223145
18566,0.081909,-0.290894,-1.022705,-70.068359,-137.634277,-67.016602
18577,0.107056,-0.267822,-0.980103,-91.064445,-132.690430,-66.650391
18589,0.149658,-0.266235,-0.938477,-104.492180,-125.549309,-65.368652
18600,0.191528,-0.287964,-0.915771,-112.243645,-119.384758,-64.331055
18611,0.221802,-0.327759,-0.910889,-129.211426,-117.858879,-65.612793
18623,0.244629,-0.387329,-0.918945,-148.193359,-123.229973,-67.199707
18634,0.262207,-0.454346,-0.922852,-176.635727,-131.103516,-68.908691
18645,0.221069,-0.523560,-0.885742,-211.364731,-135.803223,-71.655273
18657,0.203613,-0.534424,-0.857544,-245.422348,-132.141113,-75.988770
18668,0.218140,-0.535767,-0.829346,-273.498535,-120.361320,-81.054680
18679,0.245361,-0.527222,-0.805786,-294.494629,-106.262199,-85.571281
18691,0.281982,-0.509766,-0.782349,-307.861328,-96.618645,-88.867180
18702,0.316772,-0.499390,-0.743408,-303.833008,-99.914543,-96.923820
18713,0.327637,-0.515991,-0.683594,-289.062500,-104.187004,-102.478020
18725,0.326538,-0.565918,-0.618530,-273.132324,-104.125969,-108.764641
18736,0.318481,-0.700806,-0.541260,-260.498047,-100.891106,-114.379875
18747,0.299927,-0.738647,-0.512573,-252.746567,-97.228996,-117.553703
18759,0.280029,-0.747070,-0.476196,-249.267563,-94.177238,-119.812004
18770,0.266602,-0.748169,-0.431274,-247.680649,-90.393059,-124.511711
18782,0.259155,-0.770752,-0.375732,-246.093735,-85.144035,-131.835938
18793,0.250122,-0.803955,-0.312134,-240.661606,-65.979004,-144.958496
18804,0.241699,-0.829346,-0.256226,-236.083969,-51.940914,-146.484375
18816,0.239624,-0.851562,-0.211182,-231.018051,-38.757324,-144.775391
18827,0.209961,-0.912109,-0.140381,-226.928696,-28.503416,-141.540527
18838,0.174072,-0.939819,-0.111328,-225.463852,-20.996092,-139.282227
18850,0.144287,-0.953125,-0.083496,-227.783188,-15.563964,-139.160156
18861,0.117920,-0.953735,-0.056396,-233.459457,-12.023925,-140.441895
18872,0.093384,-0.947388,-0.021729,-243.530258,-7.385253,-145.874023
18884,0.073486,-0.940796,0.022217,-244.140610,-1.464844,-149.841309
18895,0.059937,-0.944336,0.068115,-243.591293,7.690429,-153.381348
18906,0.043701,-0.959351,0.111572,-243.896469,18.859863,-154.418945
18918,-0.009399,-0.955078,0.162964,-245.849594,29.357908,-153.137207
18929,-0.028320,-0.941284,0.188721,-248.840317,35.583496,-151.428223
18941,-0.047852,-0.928589,0.233154,-251.525864,36.315918,-151.123047
18952,-0.072510,-0.909790,0.286011,-253.295883,34.790039,-152.893066
18963,-0.099609,-0.883911,0.332275,-253.417953,36.987305,-161.682114
18975,-0.125732,-0.855713,0.372437,-251.403793,40.893551,-166.198715
18986,-0.147217,-0.824829,0.407959,-247.924789,45.227047,-168.884262
18997,-0.172729,-0.770386,0.487305,-243.347153,49.194332,-169.189438
19009,-0.187622,-0.750122,0.525879,-238.769516,52.612301,-167.480453
19020,-0.205078,-0.725342,0.565674,-235.351547,55.297848,-164.672836
19031,-0.222290,-0.686890,0.608643,-233.276352,57.189938,-161.621078
19043,-0.238403,-0.637329,0.648682,-230.407700,58.471676,-158.874512
19054,-0.252075,-0.598999,0.685425,-216.796860,60.791012,-155.456543
19066,-0.263306,-0.577026,0.717285,-209.716782,62.499996,-153.686523
19077,-0.271973,-0.554810,0.749146,-204.589828,64.758301,-150.390625
19088,-0.286499,-0.471191,0.821899,-199.401840,67.810059,-145.324707
19100,-0.291138,-0.412964,0.854614,-191.162094,71.289062,-139.038086
19111,-0.293945,-0.369019,0.883301,-179.077133,74.523926,-131.774902
19122,-0.294067,-0.349243,0.908569,-162.963852,77.819824,-123.840324
19134,-0.294067,-0.341431,0.928101,-144.042969,81.115715,-115.173332
19145,-0.293823,-0.328613,0.934937,-112.670891,83.190910,-96.008293
19156,-0.288208,-0.307617,0.928101,-102.355949,78.918457,-87.829582
19168,-0.276245,-0.288452,0.919312,-93.811028,71.899414,-81.665031
19179,-0.253540,-0.270752,0.937378,-87.036125,65.002441,-76.965332
19190,-0.242310,-0.260132,0.957520,-82.641594,60.913082,-72.631836
19202,-0.234375,-0.245972,0.972412,-79.772949,60.607906,-67.687988
19213,-0.227173,-0.229248,0.975952,-75.805664,62.805172,-61.584469
19224,-0.220947,-0.214722,0.969971,-69.030762,65.307617,-54.321285
19236,-0.217163,-0.208618,0.958862,-49.255367,66.589355,-40.954586
19247,-0.210815,-0.217651,0.950928,-42.053219,65.490723,-37.414551
19258,-0.197998,-0.229858,0.947510,-39.733887,63.781734,-34.729004
19270,-0.167114,-0.214600,0.937378,-41.259762,60.913082,-31.433104
19281,-0.162720,-0.207520,0.940186,-43.823238,57.006832,-27.404783
19292,-0.161865,-0.213501,0.949951,-45.654293,54.077145,-24.047850
19304,-0.156494,-0.211670,0.957520,-48.339840,54.626461,-22.155760
19315,-0.148193,-0.190674,0.956787,-52.978512,57.983395,-21.362303
19326,-0.137939,-0.165405,0.956665,-61.401363,62.316891,-22.888182
19338,-0.126953,-0.149414,0.963135,-62.438961,63.232418,-23.559568
19349,-0.122803,-0.134888,0.971924,-59.387203,64.514160,-22.338865
19360,-0.131104,-0.119141,0.993530,-52.001949,66.162109,-19.714355
19372,-0.127686,-0.125000,0.999878,-42.053219,68.603516,-17.028809
19383,-0.119873,-0.133301,0.996460,-33.020020,72.265625,-14.831542
19394,-0.107788,-0.138062,0.993774,-27.404783,75.988770,-13.183593
19406,-0.094727,-0.139893,1.002563,-25.390623,78.430176,-11.413573
19417,-0.083862,-0.141724,1.014282,-28.564451,76.538086,-7.141113
19428,-0.071289,-0.131958,1.019531,-30.029295,72.753906,-6.347656
19440,-0.055298,-0.109131,1.020020,-29.296873,67.504883,-6.652832
19451,-0.029907,-0.093140,1.019409,-25.573729,61.523434,-7.385253
19462,-0.020508,-0.094238,1.021606,-19.836426,56.518551,-7.812500
19474,-0.012817,-0.095093,1.016479,-14.465331,53.955074,-7.507324
19485,-0.003906,-0.094482,1.009155,-10.437011,54.199215,-6.713867
19496,0.006958,-0.097290,1.012817,-7.873535,56.823727,-5.432128
19507,0.016235,-0.106323,1.018066,-7.141113,65.673828,-0.366211
19519,0.029053,-0.111206,1.018311,-8.850098,67.932129,2.319336
19530,0.048218,-0.109985,1.016602,-12.084960,66.040039,4.028320
19541,0.079834,-0.092163,1.007324,-14.160155,60.546871,4.638672
19553,0.090820,-0.070190,1.001587,-12.329101,53.283688,4.577637
19564,0.098389,-0.060059,0.996216,-6.835937,45.837399,3.967285
19575,0.103027,-0.060913,0.993042,0.427246,39.672852,3.173828
19586,0.107300,-0.066040,0.992188,8.239746,35.583496,2.990722
19598,0.112183,-0.077393,0.989258,21.118162,32.958984,5.737304
19609,0.119751,-0.099731,0.987427,21.972654,32.470703,7.690429
19620,0.128296,-0.125366,0.990967,18.127441,31.188963,9.399414
19631,0.139282,-0.138062,0.995361,11.535644,28.381346,10.437011
19643,0.169556,-0.112183,0.993286,4.577637,23.864744,10.314940
19654,0.174805,-0.094604,0.991699,-0.549316,18.127441,9.399414
19665,0.165894,-0.084351,0.990479,-2.197266,13.122558,8.789062
19676,0.157349,-0.081909,0.991089,-0.610352,11.291503,8.666992
19688,0.155884,-0.086304,0.993652,0.915527,13.000487,8.666992
19699,0.160889,-0.083984,0.993286,-1.464844,20.629881,9.460449
19710,0.172729,-0.068726,0.990967,-1.770019,22.216795,10.009766
19722,0.185425,-0.051025,0.988770,0.427246,21.179197,10.437011
19733,0.197998,-0.055054,0.985718,4.638672,18.066406,10.437011
19744,0.197998,-0.074463,0.982178,9.033203,13.977050,9.704590
19755,0.196411,-0.084595,0.973633,11.718749,9.704590,8.056641
19766,0.195557,-0.088745,0.964966,11.901855,5.432128,5.859375
19778,0.193604,-0.094971,0.957275,9.826660,1.586914,3.295898
19789,0.191162,-0.093628,0.953979,2.685547,-0.244141,-0.854492
19800,0.191040,-0.082275,0.958862,-0.366211,1.403808,-0.732422
19811,0.193726,-0.069092,0.967407,-0.854492,2.929687,0.793457
19823,0.197144,-0.059570,0.976074,1.586914,3.601074,2.868652
19834,0.196289,-0.074219,0.984741,5.310058,3.540039,4.760742
19845,0.193115,-0.089722,0.977051,7.934570,3.173828,5.920410
19856,0.191895,-0.098633,0.969604,8.300781,2.319336,6.225585
19867,0.189575,-0.103271,0.964600,6.713867,0.793457,5.981445
19879,0.187988,-0.099243,0.958862,4.150391,-0.915527,5.187988
19890,0.190430,-0.087646,0.956909,-0.854492,-3.723144,2.807617
19901,0.195801,-0.077148,0.963257,-2.136230,-4.272461,2.624511
19912,0.197021,-0.070435,0.973267,-1.342773,-3.845215,4.150391
19923,0.195435,-0.072998,0.984131,0.549316,-2.380371,6.774902
19935,0.179810,-0.099121,1.001587,1.892090,0.488281,9.521484
19946,0.174316,-0.100464,1.002319,1.770019,4.638672,11.535644
19957,0.177979,-0.099609,1.000488,0.000000,9.094238,12.207030
19968,0.189087,-0.103638,1.000854,-3.479004,12.756347,11.474608
19979,0.202515,-0.091187,1.003174,-8.544922,14.587401,10.314940
19991,0.210571,-0.064575,0.998047,-13.793944,11.413573,7.446289
20002,0.212769,-0.040039,0.992432,-7.507324,7.385253,6.225585
20013,0.214966,-0.031128,0.996094,1.403808,4.028320,5.371093
20024,0.211670,-0.065186,0.990479,7.995605,1.953125,4.333496
20036,0.211548,-0.080322,0.985474,11.291503,0.671387,3.173828
20047,0.211792,-0.088867,0.983398,12.084960,-0.366211,2.441406
20058,0.209839,-0.101074,0.982910,10.925292,-1.464844,2.014160
20070,0.208008,-0.110962,0.980225,7.385253,-2.380371,1.220703
20081,0.208740,-0.104248,0.977051,-4.150391,-2.807617,-2.075195
20092,0.209595,-0.082764,0.978516,-7.446289,-2.868652,-2.990722
20103,0.208618,-0.057617,0.982788,-5.920410,-2.807617,-2.746582
20115,0.208252,-0.038818,0.986450,-0.671387,-2.685547,-1.831055
20126,0.202759,-0.051392,0.981812,5.615234,-2.563476,-0.732422
20137,0.198608,-0.075073,0.976074,10.131835,-2.319336,0.183105
20148,0.195679,-0.096558,0.975708,11.169433,-1.953125,0.732422
20159,0.195312,-0.106201,0.977661,8.544922,-0.976562,0.793457
20171,0.198730,-0.099731,0.980469,3.295898,0.610352,0.488281
20182,0.205200,-0.086548,0.983765,-6.958007,2.807617,-0.549316
20193,0.209473,-0.071411,0.987305,-8.483887,2.563476,-0.793457
20204,0.208862,-0.057617,0.988892,-6.347656,1.525879,-0.671387
20216,0.202148,-0.058960,0.985962,-1.403808,0.061035,-0.366211
20227,0.196899,-0.081787,0.982544,3.784179,-1.220703,-0.122070
20238,0.193481,-0.104492,0.980713,6.225585,-1.464844,-0.244141
20249,0.191650,-0.111694,0.981079,4.699707,-0.793457,-0.183105
20260,0.192749,-0.101196,0.982422,0.915527,0.549316,0.061035
20272,0.197021,-0.084351,0.984131,-2.624511,1.953125,0.183105
20283,0.201904,-0.075073,0.983276,-5.187988,2.197266,-0.854492
20294,0.205078,-0.072754,0.979858,-4.272461,1.037598,-1.647949
20305,0.205688,-0.072632,0.975220,-2.624511,-0.366211,-1.953125
20316,0.199951,-0.086304,0.968750,-0.793457,-1.464844,-1.525879
20328,0.196045,-0.088867,0.967529,0.610352,-1.892090,-0.793457
20339,0.196167,-0.084351,0.968628,1.220703,-1.892090,-0.244141
20350,0.197266,-0.082520,0.971191,1.403808,-1.831055,-0.122070
20361,0.196533,-0.084229,0.974976,1.403808,-1.647949,-0.183105
20372,0.196167,-0.083984,0.977295,1.159668,-0.976562,0.000000
20384,0.198608,-0.082153,0.978271,0.488281,1.037598,1.098633
20395,0.200684,-0.084106,0.981079,-0.122070,1.342773,1.770019
20406,0.200073,-0.085327,0.985474,-0.488281,1.220703,2.136230
20417,0.198730,-0.074463,0.990479,-0.427246,1.037598,1.953125
20428,0.199707,-0.072876,0.988037,0.061035,0.976562,1.647949
20440,0.200684,-0.070068,0.984375,0.793457,0.915527,1.281738
20451,0.200073,-0.068970,0.982910,1.953125,1.159668,1.098633
20462,0.200073,-0.073364,0.982910,3.417969,1.953125,1.464844
20473,0.201660,-0.079224,0.984741,3.967285,4.699707,3.173828
20484,0.203003,-0.084595,0.986328,2.136230,5.493164,3.479004
20496,0.204712,-0.087036,0.984863,-0.549316,5.187988,2.868652
20507,0.209961,-0.084717,0.983032,-3.906250,3.723144,1.464844
20518,0.215210,-0.066772,0.979004,-6.835937,1.586914,-0.122070
20529,0.216553,-0.052734,0.977783,-7.751464,-0.732422,-1.220703
20540,0.216431,-0.042725,0.978149,-5.981445,-2.807617,-1.586914
20552,0.212402,-0.042480,0.978882,-2.319336,-4.028320,-1.342773
20563,0.208618,-0.048584,0.981445,1.831055,-3.967285,-0.732422
20574,0.206909,-0.056763,0.986206,5.920410,-0.183105,0.244141
20585,0.207031,-0.065918,0.989990,4.150391,1.953125,0.305176
20596,0.210571,-0.071899,0.992188,0.549316,3.112793,-0.061035
20608,0.214600,-0.072998,0.992188,-3.540039,2.929687,-1.098633
20619,0.210571,-0.059814,0.988037,-6.408691,1.586914,-2.380371
20630,0.205811,-0.052246,0.986206,-6.652832,-0.549316,-3.356933
20641,0.201782,-0.049438,0.983398,-3.784179,-2.441406,-3.662109
20653,0.200073,-0.052979,0.980591,1.159668,-3.234863,-3.051758
20664,0.199707,-0.061279,0.978027,6.225585,-2.746582,-1.647949
20675,0.199707,-0.074097,0.978271,10.131835,-0.183105,1.220703
20686,0.200317,-0.089600,0.982788,7.751464,1.098633,1.525879
20697,0.202637,-0.100708,0.985596,3.173828,1.953125,1.281738
20709,0.207153,-0.101929,0.984253,-2.197266,2.014160,0.671387
20720,0.213257,-0.078125,0.982544,-6.713867,1.159668,-0.061035
20731,0.212402,-0.065308,0.985352,-8.911133,-0.122070,-0.610352
20742,0.211426,-0.060059,0.987793,-8.666992,-1.281738,-0.793457
20754,0.209839,-0.064697,0.989502,-7.446289,-1.708984,-0.854492
20765,0.205444,-0.080933,0.992920,-7.629394,-0.976562,-1.098633
20776,0.200439,-0.100708,0.999268,-21.301268,5.493164,-2.807617
20787,0.199097,-0.100830,1.008179,-34.240723,11.047362,-3.967285
20799,0.200073,-0.065552,1.020508,-45.776363,17.211914,-4.455566
20810,0.194824,-0.000488,1.037598,-52.917477,23.681639,-4.272461
20821,0.194946,0.003296,1.038086,-56.701656,31.311033,-4.333496
20832,0.200317,0.005371,1.034546,-61.035152,41.076656,-5.859375
20844,0.209229,0.025391,1.028076,-68.542480,53.161617,-8.850098
20855,0.225952,0.068604,1.025757,-78.491211,67.016602,-12.329101
20866,0.245361,0.110718,1.034058,-91.125481,94.055168,-12.817382
20877,0.266846,0.140991,1.040527,-86.914055,105.712883,-8.972168
20889,0.290894,0.166870,1.029785,-74.768066,115.173332,-5.310058
20900,0.305908,0.190796,1.002686,-56.884762,121.582024,-4.394531
20911,0.315063,0.194458,0.932373,-36.499023,125.183098,-7.446289
20922,0.320435,0.173340,0.918579,-15.930175,128.051758,-13.916015
20934,0.329346,0.160889,0.917358,3.295898,133.178711,-21.911619
20945,0.349854,0.160767,0.916626,20.996092,141.845703,-29.296873
20956,0.381836,0.150879,0.915771,38.452148,152.038574,-35.400391
20968,0.415649,0.107544,0.912231,65.551758,168.212875,-42.236324
20979,0.459473,0.042603,0.889160,66.040039,172.119125,-42.663570
20990,0.504883,-0.004517,0.851440,55.908199,172.424301,-42.480465
21002,0.607788,0.055664,0.763672,42.053219,168.395981,-43.151852
21013,0.646118,0.124512,0.738403,37.231445,158.508301,-45.227047
21024,0.667847,0.165039,0.732422,50.354000,143.981934,-49.377438
21035,0.677002,0.175171,0.733032,79.895020,129.089355,-57.434078
21047,0.682007,0.148560,0.721069,119.750969,116.577141,-70.434570
21058,0.693481,0.088867,0.695312,196.411118,96.435539,-107.604973
21069,0.712280,0.024536,0.659546,219.421371,85.083000,-128.295898
21081,0.720825,-0.025146,0.612793,233.825668,71.594238,-147.460938
21092,0.682861,-0.152344,0.545288,246.826157,57.739254,-162.292465
21104,0.656128,-0.241455,0.534668,259.765625,46.386715,-171.203598
21115,0.632568,-0.333496,0.523560,267.578125,38.391113,-175.476059
