timestamp,ax,ay,az,gx,gy,gz,label
81,-0.053820966188987,0.3268384225564863,0.5640182498867703,-0.0156574311637485,0.0291343464975863,0.1240623236190796,3
93,-0.061570662668852,0.3173222009439987,0.5800804941055985,-0.0032331936626722,0.0158847247754266,0.1278542805424479,3
104,-0.081336992158258,0.2962224873544875,0.6002724926308942,0.0154031574999739,0.0005967048494274,0.1468141272868704,3
115,-0.1003254946761085,0.2742992545869725,0.6032556151089844,0.0098122541867673,0.0158847247754266,0.1430221703635021,3
126,-0.1057512346532036,0.2610585573505093,0.5952254328617246,0.0004940786054442,0.0342303587057863,0.141126191901818,3
138,-0.1030399520666388,0.2552668113619974,0.5954547592274002,-0.0100665278505419,0.0495183786317856,0.1468141272868704,3
149,-0.0840482747448228,0.2614754003912272,0.608992533699489,-0.0243543963967083,0.0586912039462658,0.1581900291207657,3
160,-0.0731967947906324,0.2908441954388828,0.6124343089089302,-0.0398846958175378,0.0607296021501055,0.1714619094163452,3
171,-0.0685488817850927,0.3305595092126512,0.6110583507148774,-0.0485816610504975,0.0566528057424261,0.1771498448013976,3
182,-0.0662217504783573,0.3595182391552104,0.6053214321243725,-0.0423695473889276,0.0484991795298657,0.1752538663397135,3
194,-0.0635104678917924,0.363242714779186,0.5998138398995432,-0.0262180376197348,0.041364769117826,0.1714619094163452,3
205,-0.0635104678917924,0.3504188605834408,0.5963720646901021,-0.0044756143593989,0.0352495578077061,0.141126191901818,3
216,-0.0697108600364776,0.3268384225564863,0.5915543312866081,-0.0057180452340621,0.0342303587057863,0.1202703666957114,3
227,-0.0766859043487527,0.3003604170513704,0.5851294335990768,-0.0088240969758788,0.0281151473956664,0.108894464861816,3
238,-0.0790130356554881,0.2904307413659757,0.5816876583896358,-0.0106877381989053,0.0179231396778672,0.1107904433235002,3
250,-0.081724318242053,0.3032579845295317,0.5904058197339217,-0.011930158895632,0.0087503143633869,0.1164783787085525,3
261,-0.0952870807828082,0.2904307413659757,0.5970600437871286,-0.0131725897702951,0.0046735179557076,0.1278542805424479,3
272,-0.1045892564018187,0.2767799790244159,0.5982085553398148,-0.0156574311637485,0.0067119161595473,0.141126191901818,3
283,-0.108078365959939,0.282985179085835,0.5963720646901021,-0.0218695550032549,0.0077311152614671,0.1506060842102386,3
294,-0.1115643007140938,0.2991200548326487,0.5959134119587512,-0.0305665202362146,0.0026351197518679,0.1487101057485545,3
306,-0.1123421276856493,0.3053252548940678,0.5954547592274002,-0.0405059061659011,-0.0208065263866917,0.1335422469912909,3
317,-0.1107896485465039,0.3086362764451363,0.5979792289741394,-0.038642275120811,-0.0330369490069315,0.1297502900679226,3
328,-0.1146660841884192,0.309876638663858,0.6030262887433088,-0.0361574235494212,-0.0381329445165307,0.1297502900679226,3
339,-0.1259048902264045,0.3061521630398822,0.6050921057586971,-0.0336725821559678,-0.0381329445165307,0.1335422469912909,3
350,-0.1483825023023753,0.3131842712471158,0.6083045546024627,-0.0324301512813047,-0.0360945630112918,0.1392301823763433,3
362,-0.1576846779213858,0.319802925381442,0.6170245956710577,-0.0293240893615515,-0.0340561481088513,0.1487101057485545,3
373,-0.171634766545936,0.3243543091512322,0.6289552058591094,-0.0255968272713714,-0.0279409367987314,0.1657739429675022,3
384,-0.1867500082258367,0.3210466765679744,0.6319383283371995,-0.0237331860483449,-0.0106145186688925,0.1809418327885565,3
395,-0.1929504003705218,0.3115304549554868,0.6255134306496682,-0.0231119756999816,0.0097695134653068,0.1790458543268724,3
406,-0.189851791700162,0.3036714386024389,0.6229889609029291,-0.0187634930835017,0.0281151473956664,0.1525020626719228,3
418,-0.1852007038906568,0.3061521630398822,0.6275792476650564,-0.0181422827351383,0.0291343464975863,0.1468141272868704,3
429,-0.1867500082258367,0.3218735847137888,0.6323969810685504,-0.0144150104670218,0.0281151473956664,0.1487101057485545,3
440,-0.1882993125610166,0.3392488226793244,0.6351507771809651,-0.0063392555824254,0.0270959482937466,0.1543980411336069,3
451,-0.1894644656163671,0.3475212931052795,0.6436414918838845,0.0029789199988976,0.0321919605019466,0.1600860075824499,3
462,-0.1914010960353419,0.346694384959465,0.6429535127868581,0.0079486231416772,0.0484991795298657,0.1638779645058181,3
474,-0.190239117783957,0.3471078390323723,0.6353801035466405,0.0079486231416772,0.0729600247703453,0.161981986044134,3
485,-0.1844260517230668,0.348348201251094,0.6234494933585888,0.0073274127933139,0.0923248578026248,0.1543980411336069,3
496,-0.1778351586906212,0.3475212931052795,0.6140414731929675,0.0073274127933139,0.1004784673165843,0.141126191901818,3
507,-0.1739618978526714,0.3413160930438605,0.6115170034462282,0.0036001405251974,0.0892672437982644,0.1240623236190796,3
518,-0.1727999196012865,0.3396622767522315,0.6128929616402812,0.0004940786054442,0.0831520491867453,0.1202703666957114,3
530,-0.172022092629731,0.3388353686064171,0.6131222880059566,0.0004940786054442,0.0821328333862247,0.1202703666957114,3
541,-0.1689234839593712,0.3280787847752079,0.6112876770805528,0.0017364993021709,0.085190447390585,0.1221663451573955,3
552,-0.1669836787364308,0.3011873251971848,0.606009411221399,0.0004940786054442,0.0902864429001843,0.1259583020807638,3
563,-0.162723091814686,0.2982931466868343,0.6034849414746598,-0.0038544040110356,0.0933440569045446,0.1297502900679226,3
574,-0.1576846779213858,0.3036714386024389,0.6027969623776334,-0.0069604659307888,0.0933440569045446,0.1316462685296068,3
586,-0.1557448726984454,0.3094631845909507,0.6066973903184255,-0.0082028866275155,0.0882480446963445,0.1335422469912909,3
597,-0.1553575466146504,0.3094631845909507,0.6103703716178508,-0.0082028866275155,0.0821328333862247,0.1373342039146591,3
608,-0.1526462640280856,0.3061521630398822,0.6117463298119038,-0.0044756143593989,0.0770368378766255,0.1449181488251862,3
619,-0.1503191327213502,0.3016007792700921,0.6115170034462282,-0.0013695626175822,0.0749984229741849,0.1506060842102386,3
630,-0.1522589379442906,0.2982931466868343,0.6103703716178508,-0.0001271317429191,0.0739792238722651,0.1562940506590816,3
642,-0.1526462640280856,0.2949821251357658,0.6087632073338136,-0.0013695626175822,0.0749984229741849,0.1600860075824499,3
653,-0.1553575466146504,0.2693344167442751,0.6096805127965157,-0.0057180452340621,0.0760176220761048,0.1657739429675022,3
664,-0.1561321987822403,0.2627157626099489,0.6101391655278665,-0.0125513692439954,0.080094435182385,0.1733578878780294,3
675,-0.1538082422794705,0.2631292166828561,0.6057800848557235,-0.0200059137802284,0.0882480446963445,0.1771498448013976,3
686,-0.1464458718834004,0.2693344167442751,0.6000431662652186,-0.0249756067450716,0.0984400691127446,0.1809418327885565,3
697,-0.13559439192921,0.2771934330973231,0.5963720646901021,-0.0255968272713714,0.1035360813209447,0.1828378112502406,3
709,-0.1247429119750196,0.2846389953774638,0.5949961064960492,-0.0200059137802284,0.0994592682146645,0.1904217250969771,3
720,-0.1131167798532393,0.2929148547712297,0.5959134119587512,-0.0150362208153852,0.0892672437982644,0.1942137130841359,3
731,-0.1057512346532036,0.297879692613927,0.5972912498771129,-0.0088240969758788,0.0790752360804652,0.1980056700075042,3
742,-0.1022652998990489,0.2991200548326487,0.5991258608025168,-0.0038544040110356,0.0739792238722651,0.1999016484691883,3
753,-0.1045892564018187,0.2970527844681126,0.5982085553398148,-0.0013695626175822,0.0790752360804652,0.2055896149180313,3
765,-0.1045892564018187,0.2838120872316494,0.5943081273990228,-0.0019907729659455,0.0902864429001843,0.2074855933797154,3
776,-0.0987761903409285,0.2734723464411581,0.5922423103836345,-0.0057180452340621,0.1014976664185042,0.2112775503030837,3
787,-0.0921884721124484,0.2755396168056942,0.5947667801303738,-0.011930158895632,0.1055744795247844,0.2131735287647678,3
798,-0.0840482747448228,0.2842255413045566,0.5984378817054904,-0.0200059137802284,0.1045552804228645,0.2169655167519267,3
809,-0.0708728382878626,0.3003604170513704,0.5998138398995432,-0.0367786338977846,0.0984400691127446,0.2150695072264519,3
821,-0.0576974018309023,0.3255946713699539,0.5986672080711658,-0.0373998544240843,0.0923248578026248,0.2150695072264519,3
832,-0.053433640105192,0.3413160930438605,0.5961427383244267,-0.0305665202362146,0.0862096464925049,0.2131735287647678,3
843,-0.0569195748593468,0.3388353686064171,0.5945374537646982,-0.0200059137802284,0.080094435182385,0.2131735287647678,3
854,-0.0646724461431774,0.3235274010054177,0.5959134119587512,-0.011930158895632,0.0760176220761048,0.222653452136979,3
865,-0.0724221426230424,0.326424968483579,0.5954547592274002,-0.0069604659307888,0.0790752360804652,0.2340293539708744,3
876,-0.0782352086839326,0.3317998714313729,0.5940788010333472,-0.0038544040110356,0.0882480446963445,0.2397172893559268,3
888,-0.0747492739297779,0.3404891848980459,0.5968307174214531,-0.0001271317429191,0.0964016542103041,0.2359253324325585,3
899,-0.0642851200593825,0.3450405686678361,0.6030262887433088,0.0017364993021709,0.0984400691127446,0.2264454090603473,3
910,-0.0565322487755519,0.3359378011282559,0.6069267166841009,-0.0100665278505419,0.0994592682146645,0.2055896149180313,3
921,-0.053046314021397,0.3272518766293935,0.604174800295995,-0.0231119756999816,0.1065936786267042,0.2017976269308724,3
932,-0.0503318566308667,0.3355243470553486,0.5966013910557777,-0.0318089409329413,0.1157665039411844,0.1999016484691883,3
944,-0.0456807688213615,0.360758601373932,0.5883418824428425,-0.0299453098878513,0.1208624994507836,0.2017976269308724,3
955,-0.0317306801968112,0.3744127526833026,0.5805391468369495,-0.0187634930835017,0.1157665039411844,0.2017976269308724,3
966,-0.0278542445548959,0.3528995850208841,0.5803098204712741,-0.0075816762791521,0.1065936786267042,0.2017976269308724,3
977,-0.026304940219716,0.3351108929824414,0.5787045359115457,-0.0032331936626722,0.1004784673165843,0.1980056700075042,3
988,-0.0297940497778363,0.3243543091512322,0.5761800661648065,-0.0063392555824254,0.0984400691127446,0.1961096915458201,3
1000,-0.0336673106157861,0.3251812172970466,0.5750334343364291,-0.0131725897702951,0.0964016542103041,0.1999016484691883,3
1011,-0.0367690940901115,0.3342839848366269,0.5768680452618329,-0.0206271241285918,0.0923248578026248,0.2093815718413995,3
1022,-0.0406455297320268,0.3450405686678361,0.5823756374866622,-0.0193847034318651,0.0923248578026248,0.2093815718413995,3
1033,-0.0464585957929169,0.3528995850208841,0.5869640445244808,-0.0168998518604752,0.0933440569045446,0.2036936053925566,3
1044,-0.0588593800822872,0.3471078390323723,0.5828342902180133,-0.0162786415121119,0.0974208700108248,0.1961096915458201,3
1056,-0.0600213583336722,0.3471078390323723,0.5816876583896358,-0.0187634930835017,0.1045552804228645,0.1961096915458201,3
1067,-0.0557575966079618,0.3487616553240011,0.5832929429493641,-0.0237331860483449,0.1127088899368241,0.1980056700075042,3
1078,-0.0511065087984566,0.346694384959465,0.583751595680715,-0.0268392479680981,0.118824101246944,0.1999016484691883,3
1089,-0.0464585957929169,0.3433833634083966,0.5809996792926092,-0.0274604583164615,0.1229009143532242,0.1999016484691883,3
1100,-0.0398677027604713,0.3471078390323723,0.5761800661648065,-0.0268392479680981,0.1229009143532242,0.1942137130841359,3
1112,-0.0305687019454263,0.357037514717767,0.5665427196335097,-0.017521072386775,0.1259585116589837,0.1809418327885565,3
1123,-0.0146788080979357,0.3657234392166294,0.5518583133330431,-0.0113089485472686,0.1330929220710234,0.1752538663397135,3
1134,0.0050875213914702,0.3739992986103953,0.540155149786358,-0.0069604659307888,0.136150519376783,0.167669952492977,3
1145,0.0310510682215957,0.3847524934737938,0.5408431288833846,-0.0063392555824254,0.1300353247652639,0.1543980411336069,3
1156,0.0469409620690863,0.3905442394623056,0.5461213947425383,-0.0082028866275155,0.1198433003488638,0.1373342039146591,3
1168,0.0636055080841669,0.3959225313779103,0.5491045172206285,-0.011930158895632,0.1116896908349042,0.1202703666957114,3
1179,0.0767841193450927,0.3901307853893985,0.549792496317655,-0.017521072386775,0.107612877728624,0.1051025079384478,3
1190,0.0880229253830781,0.3731690014967702,0.5518583133330431,-0.0255968272713714,0.1086320768305439,0.0880386396557094,3
1201,0.0980997531696785,0.3549668553854202,0.5562173940051861,-0.0367786338977846,0.1106704917329844,0.0690787929112869,3
1213,0.1031381670629787,0.3429699093354894,0.5624129653270421,-0.0535513540153407,0.0943632560064644,0.0406390538584439,3
1224,0.0992617314210635,0.3334570766908125,0.5720503118583389,-0.050445302273524,0.0739792238722651,0.0254711951011803,3
1235,0.0891849036344631,0.3214601306408817,0.584670780867726,-0.0473392403537708,0.0525759926361459,0.015991271728969,3
1246,0.0686439219774672,0.3169087468710915,0.6039454739303196,-0.0473392403537708,0.0403455700159062,0.0178872812544438,3
1258,0.0636055080841669,0.319802925381442,0.6057800848557235,-0.0405059061659011,0.0393263709139863,0.0330551400117074,3
1269,0.0647706611395174,0.3102900927367651,0.6083045546024627,-0.0224907653516182,0.0454415822241062,0.0501189772306551,3
1280,0.0705837272004076,0.291674492552508,0.6126636352746057,-0.0038544040110356,0.0495183786317856,0.0652868670517094,3
1291,0.0818225332383929,0.2747127086598798,0.6156467577526957,0.0060849819186508,0.0495183786317856,0.07476675936013,3
1303,0.0938359914439683,0.2610585573505093,0.6165640632153978,-0.0075816762791521,0.041364769117826,0.0842466827323412,3
1314,0.1015856879238333,0.2548533572890902,0.6124343089089302,-0.0262180376197348,0.0383071718120665,0.0899346181173936,3
1325,0.1054621235657486,0.2672637574119283,0.6055507584900481,-0.0417483268626278,0.0372879727101467,0.1069984864001319,3
1336,0.1062367757333386,0.2896038332201612,0.6032556151089844,-0.0473392403537708,0.0352495578077061,0.1240623236190796,3
1348,0.1077860800685184,0.3094631845909507,0.6133516143716322,-0.044854388782381,0.0311727614000268,0.1373342039146591,3
1359,0.1043001453143637,0.3040848926753461,0.622071655440227,-0.0380210647724477,0.0250575500899069,0.1468141272868704,3
1370,0.0934486653601733,0.2920879466254152,0.6303330437774711,-0.0318089409329413,0.0199615378817069,0.1581900291207657,3
1381,0.0794954019316576,0.2767799790244159,0.6385925523904062,-0.0274604583164615,0.0148655256735068,0.1771498448013976,3
1393,0.0636055080841669,0.2672637574119283,0.644329470980911,-0.0287028790131882,0.0179231396778672,0.2017976269308724,3
1404,0.0488807672920268,0.2730555034004401,0.6470832670933256,-0.0429907577372909,0.0474799804279459,0.2473012342664539,3
1415,0.0422930490635466,0.2920879466254152,0.6486885516530542,-0.0467180300054074,0.0617488012520253,0.2605731145620334,3
1426,0.0411278960081962,0.3156683846523698,0.6493765307500804,-0.0436119680856543,0.0739792238722651,0.2700530379342446,3
1437,0.0329908734445361,0.348348201251094,0.6482298989217029,-0.0361574235494212,0.0831520491867453,0.275740973319297,3
1449,0.0190376100160204,0.3450405686678361,0.6434121655182091,-0.0280816686648248,0.0923248578026248,0.2776369517809811,3
1460,0.007024151810445,0.3388353686064171,0.6353801035466405,-0.0231119756999816,0.1045552804228645,0.2776369517809811,3
1471,-0.0003382185856249,0.3425564552625821,0.6271205949337053,-0.0224907653516182,0.1178049021450241,0.2795329613064559,3
1482,-0.0046019803113352,0.3537264931666986,0.622071655440227,-0.0249756067450716,0.1279969098628234,0.28142893976814,3
1494,-0.0061512846465151,0.3706882770593268,0.6193178593278126,-0.0280816686648248,0.1432849297888227,0.2852208966915082,3
1505,-0.0057639585627202,0.3884769690977695,0.6158760841183714,-0.0274604583164615,0.1524577551033029,0.2833249182298241,3
1516,-0.0038273281437453,0.3992335529289788,0.6110583507148774,-0.0249756067450716,0.1606113646172625,0.275740973319297,3
1527,0.0027603900847347,0.4070925692820267,0.6050921057586971,-0.0218695550032549,0.163668961923022,0.2624690930237175,3
1538,0.0186502839322254,0.4145415205299781,0.5888005351741935,-0.0193847034318651,0.1595921655153426,0.249197212728138,3
1550,0.0275651334674409,0.4112304989789096,0.5800804941055985,-0.0212483446548915,0.1494001410989426,0.2378213108942426,3
1561,0.034927503863511,0.4128843152705386,0.5720503118583389,-0.0255968272713714,0.1402273324830631,0.2321333755091903,3
1572,0.0419025481757861,0.4261216235391911,0.5635595971554195,-0.031187730584578,0.1330929220710234,0.2264454090603473,3
1583,0.0484934412082317,0.4459809749099806,0.5559880676395108,-0.0324301512813047,0.1269777107609035,0.2207574736752949,3
1594,0.0519793759623866,0.4567375587411898,0.5504804754146815,-0.0181422827351383,0.1065936786267042,0.1961096915458201,3
1606,0.0531413542137715,0.4505323586797707,0.5479560056679423,-0.0125513692439954,0.0923248578026248,0.1771498448013976,3
1617,0.0519793759623866,0.4352243910787714,0.5504804754146815,-0.0150362208153852,0.0739792238722651,0.161981986044134,3
1628,0.0477156142366763,0.4215736287372116,0.5612644537743557,-0.0274604583164615,0.0566528057424261,0.1506060842102386,3
1639,0.0388039395054263,0.4310864613818884,0.5920129840179591,-0.0460968196570441,0.0444223831221864,0.1468141272868704,3
1650,0.0298890899702108,0.4472213371287023,0.6037142678403353,-0.0616271190778736,0.0372879727101467,0.1449181488251862,3
1662,0.0198122621836103,0.4600451913244476,0.6115170034462282,-0.0659756016943534,0.0321919605019466,0.1449181488251862,3
1673,0.0178756317646355,0.4604586453973548,0.6172539220367331,-0.0591422675064837,0.0281151473956664,0.141126191901818,3
1684,0.0182629578484304,0.446807883055795,0.6234494933585888,-0.0492028713988609,0.0250575500899069,0.1373342039146591,3
1695,0.0116752396199503,0.4261216235391911,0.6328556337999014,-0.0479604507021342,0.0311727614000268,0.1392301823763433,3
1707,-0.0003382185856249,0.4070925692820267,0.6461659616306237,-0.0554149952383672,0.0444223831221864,0.1487101057485545,3
1718,-0.0123516767912003,0.4008873692206076,0.6555721020719365,-0.0622483294262369,0.0627680003539452,0.1562940506590816,3
1729,-0.0181647428520904,0.4046118448445834,0.6562619608932717,-0.0653543913459901,0.0811136342843048,0.161981986044134,3
1740,-0.0142914820141407,0.4108170449060024,0.6406583694057943,-0.0647331708196903,0.0953824551083843,0.1638779645058181,3
1752,-0.0061512846465151,0.4174356990403287,0.6255134306496682,-0.0603846882032104,0.1035360813209447,0.1657739429675022,3
1763,0.00818613006183,0.4244678072475622,0.6096805127965157,-0.0535513540153407,0.1086320768305439,0.1714619094163452,3
1774,0.0201995882674053,0.4298460991631668,0.5972912498771129,-0.0460968196570441,0.107612877728624,0.1771498448013976,3
1785,0.0244633499931156,0.436464753297493,0.5917836576522837,-0.0380210647724477,0.0953824551083843,0.1809418327885565,3
1796,0.0213647413227557,0.4252947153933766,0.5922423103836345,-0.0411271165142645,0.0586912039462658,0.1695659309546611,3
1808,0.0163263274294555,0.4033714826258617,0.59247163674931,-0.057899846809757,0.0525759926361459,0.1543980411336069,3
1819,0.0139991961227202,0.3975797366373498,0.589947167002571,-0.0765361979724033,0.0535951917380658,0.1487101057485545,3
1830,0.0050875213914702,0.4174356990403287,0.5819169847553112,-0.0864755839020897,0.0535951917380658,0.1543980411336069,3
1841,0.0035350422523248,0.424054353174655,0.5809996792926092,-0.0877180147767529,0.0525759926361459,0.1657739429675022,3
1853,0.0085734561456249,0.4335705747871425,0.5809996792926092,-0.0821271012856099,0.0495183786317856,0.1733578878780294,3
1864,0.0178756317646355,0.4488751534203312,0.5805391468369495,-0.0728089257042867,0.0454415822241062,0.1771498448013976,3
1875,0.0275651334674409,0.4617023965838873,0.5798511677399231,-0.057899846809757,0.0393263709139863,0.1828378112502406,3
1886,0.0326035473607412,0.4612855535431693,0.5775560243588593,-0.0249756067450716,0.0240383509879871,0.1980056700075042,3
1898,0.0298890899702108,0.4554938075546575,0.5748041079707534,-0.0137938001186585,0.018942338779787,0.2055896149180313,3
1909,0.0213647413227557,0.4455675208370734,0.5761800661648065,-0.0100665278505419,0.0179231396778672,0.2112775503030837,3
1920,0.0085734561456249,0.4261216235391911,0.5807684732026249,-0.0181422827351383,0.0250575500899069,0.2150695072264519,3
1931,4.910749816996754e-05,0.4137112234163529,0.5814583320239601,-0.0342937925043312,0.0403455700159062,0.2112775503030837,3
1943,0.0097386092009754,0.4410161370672832,0.5814583320239601,-0.0498240919251606,0.0525759926361459,0.2093815718413995,3
1954,0.0205900891551658,0.4708017751556568,0.5844414545020503,-0.0560362055867306,0.0535951917380658,0.2093815718413995,3
1965,0.0213647413227557,0.4848659915701238,0.5929302894806611,-0.0498240919251606,0.041364769117826,0.2074855933797154,3
1976,0.00663682572665,0.4803179967681444,0.6037142678403353,-0.0361574235494212,0.0219999360855465,0.2036936053925566,3
1987,-0.0197172219912359,0.4612855535431693,0.6096805127965157,-0.0131725897702951,0.0077311152614671,0.1961096915458201,3
1999,-0.0491698783794817,0.436464753297493,0.6071579227740852,-0.0094453175021786,0.0179231396778672,0.2036936053925566,3
2010,-0.0731967947906324,0.4186760612590504,0.6005036987208785,-0.0106877381989053,0.0311727614000268,0.2169655167519267,3
2021,-0.0824989704096429,0.4141246774892602,0.5977499026084637,-0.0150362208153852,0.041364769117826,0.2302373970475062,3
2032,-0.0588593800822872,0.4414295911401904,0.5975205762427883,-0.0200059137802284,0.0454415822241062,0.2416132988814015,3
2044,-0.0499445305470717,0.4637696669484233,0.5954547592274002,-0.0231119756999816,0.0454415822241062,0.2510931911898222,3
2055,-0.054595618356577,0.4745262507796325,0.5949961064960492,-0.0249756067450716,0.0393263709139863,0.254885179176981,3
2066,-0.0638977939755875,0.4823852671326805,0.5954547592274002,-0.0268392479680981,0.0301535622981069,0.2567811576386651,3
2077,-0.0673837287297422,0.4981066888065871,0.5954547592274002,-0.0299453098878513,0.0199615378817069,0.2605731145620334,3
2088,-0.0669964026459473,0.5187895593553804,0.5963720646901021,-0.0280816686648248,0.0036543188537877,0.28142893976814,3
2100,-0.0658344243945623,0.5353378891751014,0.5993551871681921,-0.0218695550032549,-0.0065377055626123,0.2909088631403512,3
2111,-0.0662217504783573,0.5469213811521251,0.6053214321243725,-0.0168998518604752,-0.0157105141784917,0.2965967985254036,3
2122,-0.0770732304325477,0.5551938515780803,0.6216130027088761,-0.0150362208153852,-0.0167297132804115,0.3022847339104559,3
2133,-0.0844356008286178,0.5489886515166612,0.6227596345372535,-0.0144150104670218,-0.0055185064606924,0.3022847339104559,3
2145,-0.0867627321353532,0.5423699973823349,0.6179419011337595,-0.0168998518604752,0.013846326571587,0.2965967985254036,3
2156,-0.0821116443258479,0.5427834514552422,0.6115170034462282,-0.0206271241285918,0.0321919605019466,0.2852208966915082,3
2167,-0.0739746217621879,0.551059310849008,0.6083045546024627,-0.0243543963967083,0.0454415822241062,0.2738449948576129,3
2178,-0.0635104678917924,0.5647100731905678,0.6071579227740852,-0.0231119756999816,0.0474799804279459,0.254885179176981,3
2189,-0.0588593800822872,0.5700883651061723,0.6066973903184255,-0.0168998518604752,0.0403455700159062,0.2397172893559268,3
2201,-0.0650597722269724,0.5580914190562415,0.6048627793930215,-0.0113089485472686,0.0372879727101467,0.2188614952136108,3
2212,-0.0766859043487527,0.532026867624033,0.6014210041835805,-0.0131725897702951,0.0434031840202665,0.1942137130841359,3
2223,-0.0871500582191482,0.4873501049753779,0.5867347181588052,-0.0224907653516182,0.057672004844346,0.1714619094163452,3
2234,-0.0875373843029432,0.4919014887451681,0.5800804941055985,-0.0330513616296681,0.0739792238722651,0.1600860075824499,3
2245,-0.0852134278001733,0.5005874132440304,0.5766387188961573,-0.0355362132010579,0.0872288455944247,0.161981986044134,3
2257,-0.0836609486610279,0.505965705159635,0.5743454552394025,-0.0293240893615515,0.0923248578026248,0.167669952492977,3
2268,-0.080175013906873,0.5121709052210541,0.574574781605078,-0.0162786415121119,0.0902864429001843,0.1695659309546611,3
2279,-0.0759112521811628,0.5175491971366587,0.5743454552394025,0.0172667987230004,0.0678640125621452,0.1600860075824499,3
2290,-0.0700981861202726,0.5121709052210541,0.5729676173210407,0.0290698258757133,0.0525759926361459,0.1506060842102386,3
2302,-0.0604086844174672,0.5051387970138206,0.5754920870677799,0.0352819497152196,0.036268756909626,0.1487101057485545,3
2313,-0.0522716618538071,0.5084464295970784,0.5839809220463906,0.0390092118053998,0.0219999360855465,0.1506060842102386,3
2324,-0.0452934427375664,0.5382354566532627,0.601191677817905,0.0452213356449061,0.013846326571587,0.1525020626719228,3
2335,-0.0367690940901115,0.5444406567146818,0.6027969623776334,0.0532970905295025,0.013846326571587,0.1487101057485545,3
2347,-0.0301813758616313,0.5415430892365205,0.6000431662652186,0.0595092041910725,0.0199615378817069,0.1373342039146591,3
2358,-0.0239809837169462,0.5299595972594968,0.5954547592274002,0.0619940557624623,0.0311727614000268,0.1221663451573955,3
2369,-0.0170027646007055,0.5158953808450297,0.5922423103836345,0.0626152661108256,0.0454415822241062,0.108894464861816,3
2380,-0.0088657420370455,0.505965705159635,0.5936182685776875,0.0607516350657356,0.0739792238722651,0.0937265750407618,3
2391,-0.0011128707532149,0.5018277754627521,0.5988965344368412,0.0564031422713193,0.0841712482886652,0.0823506732068664,3
2403,0.00818613006183,0.5038984347950989,0.6030262887433088,0.0508122389581127,0.0902864429001843,0.0671828144496028,3
2414,0.0182629578484304,0.5047253429409133,0.6021089832806069,0.0470849666899962,0.0943632560064644,0.0501189772306551,3
2425,0.0279524595512359,0.4770069752170759,0.5954547592274002,0.0458425459932695,0.0974208700108248,0.0368470969350756,3
2436,0.035702156031101,0.4559106505953754,0.5920129840179591,0.0458425459932695,0.1055744795247844,0.0311591615500232,3
2448,0.0504300716272066,0.434397482932957,0.5888005351741935,0.0483273873867229,0.1249393125570638,0.0387430753967597,3
2459,0.0709710532842025,0.4145415205299781,0.5876539033458161,0.0501910286097494,0.1494001410989426,0.048222998768971,3
2470,0.089959555802053,0.3967494395237247,0.59247163674931,0.0489486079130226,0.1667265759273823,0.048222998768971,3
2481,0.097321926198123,0.3843390394008866,0.5977499026084637,0.0402516325021265,0.163668961923022,0.0292631830883391,3
2492,0.0949979696953532,0.375239660829117,0.6009623514522295,0.0414940633767896,0.1473617428951029,0.0235752166394961,3
2504,0.089572229718258,0.3628292607062789,0.6032556151089844,0.0446001252965428,0.1279969098628234,0.0292631830883391,3
2515,0.0709710532842025,0.3227004928596033,0.6087632073338136,0.0477061770383595,0.1106704917329844,0.0368470969350756,3
2526,0.0601195733300121,0.3040848926753461,0.6119756561775792,0.0508122389581127,0.0943632560064644,0.0444310418456027,3
2537,0.0457789838177014,0.2929148547712297,0.6154174313870203,0.0570243627976191,0.080094435182385,0.0577029221411822,3
2549,0.0318288951931512,0.2862962006369035,0.614729452289994,0.063236476459189,0.0719408256684254,0.0709748024367617,3
2560,0.0279524595512359,0.2771934330973231,0.6131222880059566,0.0651001176822155,0.0709216265665056,0.0842466827323412,3
2571,0.0314415691093562,0.2651964870473922,0.6140414731929675,0.0452213356449061,0.0892672437982644,0.1107904433235002,3
2582,0.0415152220919912,0.270988233035904,0.6172539220367331,0.0234789123845703,0.102516865520424,0.1259583020807638,3
2593,0.0523667020461815,0.3135977253200229,0.6188592065964615,0.009191043838404,0.1147472881406638,0.1335422469912909,3
2605,0.0566304637718918,0.3682075526218835,0.6117463298119038,0.0172667987230004,0.1198433003488638,0.1392301823763433,3
2616,0.0566304637718918,0.3760665689749314,0.5888005351741935,0.0433576944218797,0.1127088899368241,0.141126191901818,3
2627,0.0543065072691219,0.3243543091512322,0.5878832297114914,0.0694486002986954,0.1035360813209447,0.1449181488251862,3
2638,0.0531413542137715,0.2693344167442751,0.589947167002571,0.0787667860579549,0.102516865520424,0.1487101057485545,3
2649,0.0523667020461815,0.2465808868631351,0.5972912498771129,0.0694486002986954,0.1086320768305439,0.1581900291207657,3
2661,0.0519793759623866,0.2623023085370417,0.6085338809681382,0.049569818261386,0.1198433003488638,0.1790458543268724,3
2672,0.0519793759623866,0.2941552169899514,0.6206956972461742,0.0216152813394802,0.1269777107609035,0.2264454090603473,3
2683,0.0430677012311366,0.3326301685449981,0.627808574030732,0.0234789123845703,0.1269777107609035,0.2340293539708744,3
2694,0.0302764160540057,0.3512457687292552,0.6206956972461742,0.03652436023401,0.1381889342792235,0.2302373970475062,3
2706,0.0275651334674409,0.3251812172970466,0.6158760841183714,0.0508122389581127,0.1626497628211022,0.2416132988814015,3
2717,0.0388039395054263,0.2999469629784632,0.6271205949337053,0.0576455731459824,0.201379445584262,0.2719490163959288,3
2728,0.0450043316501115,0.3462809308865578,0.6248254515526418,0.0669637589052419,0.2401090949502201,0.3022847339104559,3
2739,0.0422930490635466,0.3768934771207458,0.622071655440227,0.0843576893711614,0.2645699234920988,0.3231405591165626,3
2751,0.0419025481757861,0.3789607474852819,0.6016503305492559,0.1023728301854443,0.2849539723248989,0.3326204824887738,3
2762,0.0515920498785916,0.3640696229250006,0.5665427196335097,0.1253576639645705,0.3134916139730578,0.3288285255654056,3
2773,0.0690312480612621,0.3317998714313729,0.5355667427485397,0.1775394757182018,0.372605328870417,0.3155566142060355,3
2784,0.0961599479467381,0.3040848926753461,0.514914211767584,0.1781606962445016,0.3868741162972947,0.3098686788209831,3
2796,0.1384038895121148,0.281331362794206,0.5050475388706117,0.1557970626358024,0.3848357180934551,0.3174526237315102,3
2807,0.254281059450089,0.2962224873544875,0.5002298054671177,0.1340546393754666,0.3634325202545376,0.3383084178738261,3
2818,0.2786953019450346,0.289190379147254,0.4697106015891898,0.142130394260063,0.3226644392875381,0.3477883412460374,3
2829,0.2771459976098546,0.2523726328516469,0.4380466456071933,0.1738122136280217,0.2503011026680193,0.3326204824887738,3
2841,0.2577701690082092,0.2043848486519233,0.4286386254415719,0.1856152306027982,0.1524577551033029,0.3041807123721401,3
2852,0.225990381313228,0.1857692484676661,0.4245088711351043,0.1582819142071922,0.0637872161544659,0.2833249182298241,3
2863,0.1938232675344518,0.2089362324217135,0.4235896859480936,0.1092061541953776,-0.0503633671367704,0.2245494305986632,3
2874,0.171732981542276,0.2068655730893667,0.4421763999136609,0.1147970676865206,-0.0880738507980104,0.1657739429675022,3
2886,0.1674692198165657,0.1683940105021308,0.480496459673173,0.1160394883832473,-0.1084578829322097,0.1183743882340273,3
2897,0.1744442641288408,0.1456404806209907,0.5206511303580889,0.1042364612305344,-0.1125346793398891,0.0842466827323412,3
2908,0.1531318051082205,0.2035579405061089,0.571591659126988,0.0868425409425513,-0.1084578829322097,0.0595989006028663,3
2919,0.1337528017026096,0.1985931026634115,0.5862760654274541,0.0731758725668119,-0.1003042567196493,0.0349511184733915,3
2931,0.124837952167394,0.175012664636457,0.6048627793930215,0.0532970905295025,-0.0880738507980104,0.0121993148056008,3
2942,0.1345274538701995,0.1766664809280858,0.6193178593278126,0.0147819471516105,-0.0666706028632904,-0.006760500875031,3
2953,0.1461535859919799,0.2130707731507857,0.6133516143716322,-0.0255968272713714,-0.0381329445165307,-0.0219283906960852,3
2964,0.1469282381595698,0.2556836544027154,0.5966013910557777,-0.0274604583164615,0.0036543188537877,-0.0314083140682965,3
2976,0.1372419112607299,0.2672637574119283,0.5977499026084637,-0.0019907729659455,0.018942338779787,-0.0276163571449283,3
2987,0.1178629078551189,0.2565105625485298,0.6236788197242644,0.0191304297680904,0.0515567935342261,-0.0352002709916647,3
2998,0.1302636921444892,0.2333435785944825,0.6700290617310359,0.0296910362240767,0.1035360813209447,-0.0598480531211396,3
3009,0.1469282381595698,0.2416160490204377,0.6519010004968196,0.0315546774471031,0.1555153524090624,-0.1034556509312463,3
3021,0.1604941755042906,0.2337570326673897,0.619547185693488,0.0253425536075968,0.1830338116539023,-0.1755030188579867,3
3032,0.1709583293746861,0.2254811732736238,0.6005036987208785,0.0011152889538075,0.1789569985476221,-0.2513423437080954,3
3043,0.1635959589786159,0.2494750653734856,0.5871933708901562,-0.038642275120811,0.1616305637191823,-0.2911580156586245,3
3054,0.144216955573005,0.2991200548326487,0.5752627607021045,-0.0864755839020897,0.1667265759273823,-0.2570303101569384,3
3066,0.1294890399768993,0.3140111793929302,0.5807684732026249,-0.0815058909372465,0.1871106247601825,-0.2191106166680934,3
3077,0.1329781495350196,0.2656099411202995,0.6034849414746598,-0.07156650500756,0.2136098682045017,-0.1830869327047232,3
3088,0.1500300216338952,0.2101765946404352,0.6301037174117955,-0.0665968018647804,0.2421474931540598,-0.1546471936518801,3
3099,0.1918866371154769,0.1741857564906425,0.6418050012341718,-0.0672180223910802,0.2604931270844194,-0.1489592582668277,3
3111,0.2143642491914477,0.2064521190164594,0.6110583507148774,-0.0678392327394435,0.2553971148762194,-0.1622311385624072,3
3122,0.2352925569322385,0.2453405246444134,0.5688378630145732,-0.0616271190778736,0.2268594732280605,-0.1944628345386185,3
3133,0.2445915577472835,0.2742992545869725,0.5523169660643942,-0.0467180300054074,0.1830338116539023,-0.2323825280274635,3
3144,0.2608687776785691,0.2879500169285323,0.5647081087081056,-0.0193847034318651,0.1453233446912632,-0.2570303101569384,3
3156,0.3027253931601508,0.2643695789015778,0.5722796382240143,0.0532970905295025,0.1392081333811433,-0.2475503867847271,3
3167,0.3542683355405724,0.2101765946404352,0.5564467203708617,0.0812516274514083,0.136150519376783,-0.2172146382064093,3
3178,0.3934104936316237,0.1580508807438288,0.5238635792018544,0.0812516274514083,0.1055744795247844,-0.181190954243039,3
3190,0.3941851457992137,0.0864826585171506,0.5201924776267378,0.0446001252965428,0.0586912039462658,-0.1451672702796688,3
3201,0.3794604050070737,0.117508658824246,0.540155149786358,-0.0063392555824254,0.0301535622981069,-0.0882878232377733,3
3212,0.3682215989690881,0.1357108049355957,0.536254721845566,-0.0361574235494212,0.0219999360855465,0.0103033363439166,3
3223,0.3523317051215975,0.099306512712896,0.5204218039924134,-0.0349150028526945,0.0005967048494274,0.135438225452975,3
3235,0.3333400277997816,0.0678670583328934,0.5034422543108833,-0.0274604583164615,-0.0483249689329307,0.2510931911898222,3
3246,0.3147388513657261,0.0720015990619656,0.4912804380328472,-0.0653543913459901,-0.1359763087798479,0.3610602215416169,3
3257,0.2883848036478401,0.088963382954594,0.4912804380328472,-0.104490734894309,-0.1604371540203275,0.3496843197077215,3
3268,0.2558303637852688,0.1121303669086413,0.4986226411830804,-0.1430058680942646,-0.1828595843583665,0.2965967985254036,3
3280,0.2364545351836234,0.1485346591313411,0.5188146397083762,-0.1715816153645337,-0.1950900069786063,0.2207574736752949,3
3291,0.2407182969093337,0.2714016871088113,0.5589711901176009,-0.1808998113017296,-0.1879555965665665,0.1638779645058181,3
3302,0.2356798830160335,0.3202163794543493,0.5681498839175467,-0.1697179843194437,-0.1736867757424871,0.1335422469912909,3
3314,0.2077765309629675,0.3127708171742085,0.5890298615398689,-0.1448695093172911,-0.1706291617381267,0.1221663451573955,3
3325,0.1550684355271954,0.2569240166214371,0.6126636352746057,-0.1237482964053186,-0.1767443730482466,0.1145824002468684,3
3336,0.1112751896266388,0.2246542651278094,0.6204663708804986,-0.1616422294348472,-0.1950900069786063,0.0785587162834982,3
3348,0.0965472740305331,0.2399622327288088,0.622071655440227,-0.208233137875272,-0.212416441807046,0.0614948790645505,3
3359,0.0926740131925834,0.2734723464411581,0.627808574030732,-0.2423997681028749,-0.2307620757374057,0.053910965217814,3
3370,0.0872482732154882,0.2999469629784632,0.6239081460899398,-0.2597937087467308,-0.2501269087696852,0.048222998768971,3
3382,0.0868609471316932,0.3284922388481151,0.5945374537646982,-0.2697330946764174,-0.2827413635241243,0.0292631830883391,3
3393,0.0701964011166126,0.3351108929824414,0.591095678555257,-0.2722179462478071,-0.3418550450242817,-0.012448467323874,3
3404,0.0376419612540414,0.3520726768750696,0.6046334530273461,-0.2616573397918209,-0.4213527753572393,-0.0617440315828237,3
3416,0.0031477161685297,0.3342839848366269,0.6356094299123161,-0.2405361370577849,-0.4947353277772788,-0.0901837706356668,3
3427,-0.0278542445548959,0.2763665249515086,0.6546547966092344,-0.1740664669359236,-0.5314265956379981,0.0273671735628644,3
3438,-0.0584720539984923,0.2275518326059706,0.6431828391525335,-0.1436270784426279,-0.5202153721196782,0.1657739429675022,3
3450,-0.0933504503638333,0.195282081112343,0.6314796756058485,-0.1312028409415516,-0.526330583429798,0.2776369517809811,3
3461,-0.1801622899973566,0.195282081112343,0.6778299176126203,-0.1256119376283451,-0.5456954164620775,0.3041807123721401,3
3472,-0.1801622899973566,0.2287921948246923,0.6925162036373952,-0.1225058757085919,-0.5497722128697569,0.2529891696515062,3
3484,-0.1820989204163314,0.2846389953774638,0.6968752843095383,-0.1218846653602285,-0.5232729694254377,0.1752538663397135,3
3495,-0.1968268360124371,0.358691331009396,0.700546385884655,-0.1088392276887253,-0.4672168518338381,0.1145824002468684,3
3506,-0.198376140347617,0.4108170449060024,0.7049073462811071,-0.0728089257042867,-0.3887383206028003,0.0785587162834982,3
3518,-0.1871373343096317,0.4132977693434457,0.7012343649816816,0.0613728454140989,-0.2368772870475256,0.0235752166394961,3
3529,-0.1607832865917456,0.3909610825030236,0.6826495307404232,0.1222516122227537,-0.1828595843583665,-0.0010725654899786,3
3540,-0.1216411285006942,0.3628292607062789,0.6599330624683881,0.1477212975732696,-0.1451491173957274,-0.0086565104005057,3
3551,-0.0910264938610635,0.3111170008825796,0.6401997166744433,0.1315697878040768,-0.1135538951404098,-0.0219283906960852,3
3563,-0.0371564201739065,0.2565105625485298,0.5947667801303738,0.0800092067546816,-0.08501623679365,-0.044680194363876,3
3574,-0.0247556358845361,0.3007738711242776,0.5754920870677799,0.0085698334900406,-0.0585169933493308,-0.0541601177360872,3
3585,-0.0108023724560204,0.3487616553240011,0.5518583133330431,-0.0616271190778736,-0.0309985508030918,-0.0427842159021918,3
3597,0.0043128692238802,0.3624158066333716,0.527534680776971,-0.1156725516986586,-0.0055185064606924,-0.0162404242472422,3
3608,0.0112879135361553,0.3768934771207458,0.5073426822516754,-0.1473543507107445,0.0158847247754266,0.0140952932672849,3
3619,0.0233013717417306,0.4145415205299781,0.4885266419204325,-0.1579149571667307,0.0495183786317856,0.0368470969350756,3
3630,0.0419025481757861,0.4521861749713997,0.4763648256423965,-0.151081622978861,0.0434031840202665,0.0387430753967597,3
3642,0.0484934412082317,0.4695614129369351,0.4777426635607582,-0.1430058680942646,0.0240383509879871,0.0425350633839186,3
3653,0.0186502839322254,0.4786607915087048,0.5078013349830265,-0.1218846653602285,-0.0014416933544122,0.0406390538584439,3
3664,-0.0061512846465151,0.4960360294742403,0.5277640071426466,-0.0783998290174933,-0.0289601525992521,0.0273671735628644,3
3676,-0.025917614135921,0.4947956672555186,0.5371720273082681,-0.0231119756999816,-0.0666706028632904,-0.0029685439516627,3
3687,-0.0367690940901115,0.4534265371901214,0.5431382722644481,0.0315546774471031,-0.124765085261528,-0.0560560961977713,3
3698,-0.053433640105192,0.3802044986718144,0.554151576989798,0.0750395137898383,-0.1981476209829666,-0.1299994115224052,3
3709,-0.0751366000135728,0.3003604170513704,0.5631009444240684,0.049569818261386,-0.2949717527471623,-0.2759901569013608,3
3721,-0.0983888642571336,0.2527860869245541,0.5481853320336177,-0.038642275120811,-0.3041445780616426,-0.3139098193264152,3
3732,-0.1216411285006942,0.2693344167442751,0.511472436558143,-0.1473543507107445,-0.3194325979876419,-0.3328696660708377,3
3744,-0.1852007038906568,0.4054387529903978,0.4853141930766669,-0.2535815849072245,-0.3540854509459206,-0.3499335032897854,3
3755,-0.2320925584615732,0.5208602186877272,0.5055061916019628,-0.3492482431815275,-0.3968919301167599,-0.3783732734064191,3
3766,-0.2747238261107448,0.6846795336898767,0.5369427009425924,-0.4026724756318856,-0.4417368074914387,-0.4238767875506286,3
3778,-0.3212283545978663,0.8385759509422527,0.5754920870677799,-0.3734755078353167,-0.4926969295734391,-0.4807562967201055,3
3789,-0.3700600143917231,0.904352427180419,0.6154174313870203,-0.0597634778548471,-0.5864634807304762,-0.4788603182584214,3
3801,-0.4250920663302651,0.861326091855582,0.658784550915702,0.1377819014656467,-0.5813674685222762,-0.4030209934083127,3
3812,-0.5033763825123677,0.7095037229033635,0.6938921618314481,0.2887363927015887,-0.5293881807355575,-0.3214937642369423,3
3823,-0.5762381335213407,0.5038984347950989,0.6980219161379156,0.3514788210891427,-0.4560056283155181,-0.2740941473758861,3
3835,-0.6490967097263483,0.2560971084756226,0.6585552245500266,0.3166909499793672,-0.3826231092926804,-0.2703021904525178,3
3846,-0.6835877800078943,0.289190379147254,0.6649801222375578,0.216054598740221,-0.3092405902698427,-0.2873660587352562,3
3858,-0.7080051973068056,0.3930283528675597,0.6835668362031248,0.1092061541953776,-0.2297428766354859,-0.3006379390308357,3
3869,-0.7099418277257804,0.4881770131211923,0.688384569606619,0.0402516325021265,-0.1482067314000877,-0.2968459821074675,3
3880,-0.6952139121296746,0.5498189486302864,0.6716343462907642,0.0309334670987398,-0.0381329445165307,-0.2380704634125159,3
3891,-0.6727363000537039,0.5862232408529863,0.6390512051217573,0.0532970905295025,-0.0289601525992521,-0.2001508009874615,3
3903,-0.651807992312913,0.5907712356549656,0.5961427383244267,0.0588879938427091,-0.0452673716271712,-0.1755030188579867,3
3914,-0.6487093836425533,0.5705018191790796,0.5672306987305361,0.0489486079130226,-0.0738050132753301,-0.1792949757813549,3
3925,-0.6599481896805386,0.4314999154547957,0.5674600250962115,0.0377667911086731,-0.0972466594138898,-0.1906708776152503,3
3936,-0.6642119514062489,0.3446271145949289,0.5578226785649146,0.0327970981438298,-0.0982658585158097,-0.181190954243039,3
3948,-0.6661485818252239,0.2792640924296699,0.535796069114215,0.03031224657244,-0.0860354358955699,-0.1413753133563006,3
3959,-0.6328194897950626,0.2912610384796008,0.5488751908549531,0.0203728606427535,-0.0727858141734103,-0.093975727559035,3
3970,-0.5746856543821953,0.330146055139744,0.5692965157459242,-0.0013695626175822,-0.0432289567247307,-0.0844958352506144,3
3981,-0.5122912320475833,0.3603451473010248,0.5757214134334555,-0.0113089485472686,0.0026351197518679,-0.0958717060207191,3
3993,-0.4510587879643561,0.4104035908330952,0.5917836576522837,0.0122971057581571,-0.0422097576228109,-0.0029685439516627,3
4004,-0.4270318715532055,0.454666899408843,0.6165640632153978,0.0477061770383595,-0.1104962811360494,0.1202703666957114,3
4015,-0.481286096520192,0.4290191910173523,0.6904503866220071,0.0930546444261848,-0.1675715644323672,0.2188614952136108,3
4026,-0.499115795590623,0.3880635150248623,0.6893037547936297,0.1309485774557134,-0.1859171983627268,0.2833249182298241,3
4037,-0.4808987704363969,0.3487616553240011,0.6608503679310901,0.1334334188491669,-0.1706291617381267,0.3345164609504579,3
4049,-0.4425312645129356,0.3636561688520933,0.6395098578531081,0.0930546444261848,-0.146168333196248,0.3610602215416169,3
4060,-0.3968013881934041,0.4013008232935149,0.6248254515526418,0.0327970981438298,-0.1094770820341296,0.3250365375782467,3
4071,-0.3537827944604375,0.4286057369444452,0.614729452289994,-0.0349150028526945,-0.0004224942524924,0.1790458543268724,3
4082,-0.3254921163235765,0.4368782073704003,0.617712574768084,-0.0094453175021786,0.0484991795298657,0.141126191901818,3
4094,-0.3123166798666163,0.3992335529289788,0.6092218600651647,0.0377667911086731,0.080094435182385,0.1335422469912909,3
4105,-0.308440244224701,0.3450405686678361,0.591095678555257,0.0806304171030449,0.0862096464925049,0.1392301823763433,3
4116,-0.335181618026382,0.2701613248900896,0.5754920870677799,0.0924334340778215,0.0648064152563857,0.161981986044134,3
4127,-0.3456457718967774,0.260645103277602,0.576409392530482,0.0607516350657356,0.013846326571587,0.222653452136979,3
4138,-0.3553352735995829,0.2316863733350429,0.5897178406368954,-0.0038544040110356,-0.0574977775488102,0.3041807123721401,3
4150,-0.3634722961632429,0.1903172432696456,0.5968307174214531,-0.0839907425086363,-0.118649890650009,0.3838120252094076,3
4161,-0.3611483396604731,0.2478212490818567,0.6046334530273461,-0.1517028333272244,-0.1400531218861281,0.4368995463917255,3
4172,-0.3576592301023528,0.3938552610133741,0.6259720833810193,-0.1082180071624255,-0.052401782039211,0.4406915033150937,3
4183,-0.3642469483308329,0.4550803534817502,0.627808574030732,-0.0193847034318651,0.0087503143633869,0.4198357091727778,3
4195,-0.3747111022012283,0.3942687150862814,0.602567636011958,0.0588879938427091,0.0403455700159062,0.3970839055049872,3
4206,-0.3836259517364438,0.3164952927981843,0.5922423103836345,0.1085849438470143,0.0484991795298657,0.3781240898243552,3
4217,-0.4239300880788801,0.2163817947018542,0.5975205762427883,0.1259788844908702,0.0525759926361459,0.3553722861565646,3
4228,-0.4491221575453812,0.2172087028476687,0.591095678555257,0.1042364612305344,0.0535951917380658,0.3136606357443513,3
4240,-0.4789621400174221,0.2610585573505093,0.5819169847553112,0.0334183084921932,0.0342303587057863,0.254885179176981,3
4251,-0.508414796405668,0.3454540227407434,0.5977499026084637,-0.0603846882032104,-0.0157105141784917,0.2131735287647678,3
4262,-0.5374833015140844,0.4000604610747932,0.6337748189869122,-0.1249907272799817,-0.0768626105810896,0.2055896149180313,3
4273,-0.5704250674604505,0.3901307853893985,0.6523596532281705,-0.0889604354734796,-0.1471875322981679,0.2188614952136108,3
4285,-0.5963886142905762,0.3706882770593268,0.6514423477654688,-0.0349150028526945,-0.1563603409140473,0.2017976269308724,3
4296,-0.6149929655285971,0.3479347471781867,0.6521303268624951,-0.0026119833143089,-0.1543219427102076,0.1828378112502406,3
4307,-0.6510333401453232,0.2689209626713679,0.6661286337902438,0.0004940786054442,-0.1339379105760083,0.1809418327885565,3
4318,-0.6603355157643336,0.2701613248900896,0.6720929990221154,-0.0088240969758788,-0.0941890621081303,0.1904217250969771,3
4330,-0.6657612557414287,0.3342839848366269,0.675305447865881,-0.011930158895632,-0.0381329445165307,0.1809418327885565,3
4341,-0.672348973969909,0.4046118448445834,0.6771419385155937,-0.0038544040110356,0.0158847247754266,0.1581900291207657,3
4352,-0.6870768895660146,0.4203298775506793,0.6812716928220612,0.0079486231416772,0.0454415822241062,0.161981986044134,3
4363,-0.7029667834135053,0.3876500609519551,0.6906797129876825,0.0284486155273499,0.0250575500899069,0.2624690930237175,3
4375,-0.7118784581447553,0.3504188605834408,0.6957286524811608,0.0383880014570364,0.0148655256735068,0.2776369517809811,3
4386,-0.7138182633676957,0.3313864173584657,0.6932041827344219,0.0458425459932695,0.0311727614000268,0.2454052558047698,3
4397,-0.7095545016419854,0.3392488226793244,0.697104610675214,0.0489486079130226,0.0729600247703453,0.1961096915458201,3
4408,-0.6948265860458797,0.2937417629170441,0.6890744284279543,0.0477061770383595,0.118824101246944,0.1714619094163452,3
4420,-0.679711344365979,0.2751261627327869,0.6826495307404232,0.0464637563416328,0.1524577551033029,0.1752538663397135,3
4431,-0.6688630392157542,0.2974662385410199,0.6716343462907642,0.043978904770243,0.1738609863394221,0.1866297681736088,3
4442,-0.6591735375129487,0.3355243470553486,0.6583258981843508,0.0377667911086731,0.1840530107558222,0.1980056700075042,3
4453,-0.6514206662291181,0.3351108929824414,0.6519010004968196,0.0284486155273499,0.1809954134500626,0.2017976269308724,3
4464,-0.6440582958330481,0.3251812172970466,0.6576379190873246,0.0060849819186508,0.1789569985476221,0.1961096915458201,3
4476,-0.6308828593760878,0.3479347471781867,0.6686512238126741,0.0067061922670141,0.1840530107558222,0.1904217250969771,3
4487,-0.6146056394448022,0.3694479148406052,0.6711756935594134,0.0135395264548838,0.1748801854413419,0.1828378112502406,3
4498,-0.5987157455973114,0.3690344607676979,0.6656681013345839,0.011054674883494,0.1453233446912632,0.161981986044134,3
4509,-0.5963886142905762,0.2573374706943442,0.6688805501783499,-0.017521072386775,0.1116896908349042,0.1335422469912909,3
4521,-0.5967759403743711,0.2395487786559016,0.6773712648812691,-0.0672180223910802,0.0923248578026248,0.108894464861816,3
4532,-0.6014270281838764,0.2792640924296699,0.6757659803215409,-0.1206422446635018,0.0964016542103041,0.0956225845662366,3
4543,-0.6095672255515019,0.3409026389709532,0.6714050199250888,-0.1641270810062371,0.1116896908349042,0.103206498412973,3
4554,-0.6072400942447664,0.4004739151477005,0.6727828578434507,-0.1840058630435464,0.1320737229691036,0.135438225452975,3
4566,-0.6025890064352613,0.4306730073089813,0.666587286521595,-0.1479755610591078,0.1718225881355824,0.2131735287647678,3
4577,-0.6115038559704767,0.4331571207142353,0.6512130213997931,-0.1225058757085919,0.1769186003437824,0.2283413875220314,3
4588,-0.6169295959475719,0.4099901367601879,0.632626307434226,-0.1212634550118652,0.185072209857742,0.222653452136979,3
4599,-0.608792573383912,0.3557971524990454,0.6030262887433088,-0.156672536470004,0.2054562419919413,0.2131735287647678,3
4611,-0.590188222145891,0.3872366068790479,0.58948851427122,-0.2132028308401153,0.2370514809458597,0.2112775503030837,3
4622,-0.562284870092825,0.4439137045454445,0.5761800661648065,-0.2641421913632107,0.2666083383945393,0.2093815718413995,3
4633,-0.5463949762453344,0.5084464295970784,0.5692965157459242,-0.2858846044456101,0.2798579601166989,0.2150695072264519,3
4644,-0.5405819101844442,0.571328727324894,0.5697551684772751,-0.2628997604885476,0.2757811470104187,0.2397172893559268,3
4656,-0.5359308223749389,0.5994605491216388,0.5608058010430047,-0.1430058680942646,0.2258402741261406,0.2947008200637195,3
4667,-0.535543496291144,0.5642966191176606,0.541531107980411,-0.1075967968140622,0.1789569985476221,0.2871168751531924,3
4678,-0.5320575615369892,0.5043118888680062,0.5312057823520877,-0.1082180071624255,0.1371697184787028,0.2624690930237175,3
4689,-0.5196536024436533,0.4811449049139588,0.5429089458987727,-0.1398998061745114,0.1157665039411844,0.2340293539708744,3
4701,-0.5165549937732936,0.4939687591097041,0.552775618795745,-0.1871119249632996,0.1096512759324637,0.2017976269308724,3
4712,-0.5103546016286084,0.505965705159635,0.5601178219459784,-0.2411573474061482,0.1106704917329844,0.1657739429675022,3
4723,-0.499115795590623,0.5361647973209158,0.5670013723648605,-0.2939603593302065,0.1127088899368241,0.1297502900679226,3
4734,-0.4967886642838876,0.585809786780079,0.5727382909553653,-0.3312330820113718,0.1127088899368241,0.108894464861816,3
4746,-0.5002777738420079,0.651172808945338,0.5784752095458701,-0.3113542999740625,0.1045552804228645,0.1259583020807638,3
4757,-0.5057035138191032,0.6995740472179688,0.5844414545020503,-0.2653846120599374,0.085190447390585,0.1506060842102386,3
4768,-0.5181042981084735,0.7078465176439239,0.58948851427122,-0.2200361446721122,0.0586912039462658,0.1695659309546611,3
4779,-0.5312829093693993,0.6784743336284575,0.5961427383244267,-0.1982937417676492,0.0393263709139863,0.1638779645058181,3
4791,-0.5421343893235896,0.6292461872100125,0.6131222880059566,-0.2088543482236354,0.0372879727101467,0.135438225452975,3
4802,-0.5417438884358291,0.6639966631410834,0.6236788197242644,-0.2399149267094215,0.0464607813260261,0.0975185630279207,3
4813,-0.5390326058492644,0.7239813933907377,0.6383632260247306,-0.2672482532829639,0.0556335899419055,0.0633908575262346,3
4824,-0.5386452797654693,0.7777609235789732,0.6498370632057402,-0.2734603669445339,0.0546143908399856,0.0463270203072869,3
4835,-0.5429090414911797,0.7976202749497626,0.6553427757062606,-0.2517179538621344,0.0434031840202665,0.0463270203072869,3
4847,-0.5460076501615394,0.7881040533372752,0.658784550915702,-0.1504604126304976,0.0311727614000268,0.1107904433235002,3
4858,-0.5471696284129243,0.7690749990801107,0.6606210415654147,-0.0988998315811024,0.036268756909626,0.1657739429675022,3
4869,-0.5483347814682747,0.7425969935749949,0.6615383470281168,-0.0665968018647804,0.0444223831221864,0.2055896149180313,3
4880,-0.5498840858034547,0.7082599717168311,0.6599330624683881,-0.0634907501229636,0.0535951917380658,0.2188614952136108,3
4892,-0.5401945841006492,0.7157089229647826,0.6530495120495058,-0.083369532160273,0.0586912039462658,0.2055896149180313,3
4903,-0.5413565623520341,0.7492156477093213,0.6530495120495058,-0.1088392276887253,0.0586912039462658,0.1771498448013976,3
4914,-0.5429090414911797,0.7814853992029488,0.6613090206624409,-0.1225058757085919,0.057672004844346,0.1468141272868704,3
4925,-0.5367086493464944,0.7959630696903229,0.6720929990221154,-0.1200210241372021,0.0637872161544659,0.1297502900679226,3
4936,-0.5297304302302538,0.7972068208768553,0.6755366539558655,-0.1051119554206088,0.0719408256684254,0.1297502900679226,3
4948,-0.5285684519788688,0.7905847777747185,0.6725535314777753,-0.0510665126218873,0.0668448134602254,0.1733578878780294,3
4959,-0.5332195397883741,0.7901713237018113,0.6700290617310359,-0.0212483446548915,0.0525759926361459,0.1999016484691883,3
4970,-0.5398072580168543,0.7719691775904614,0.670946367193738,-0.0050968348856987,0.0393263709139863,0.2093815718413995,3
4981,-0.5444583458263595,0.724394847463645,0.669111756268334,-0.0125513692439954,0.0342303587057863,0.1980056700075042,3
4992,-0.535543496291144,0.7111575391949924,0.6537374911465323,-0.0398846958175378,0.0383071718120665,0.1790458543268724,3
5004,-0.526631821559894,0.7471483773447851,0.6564912872589471,-0.0690816534361702,0.0484991795298657,0.1638779645058181,3
5015,-0.5188789502760633,0.7823123073487633,0.6629161849464782,-0.0821271012856099,0.0648064152563857,0.1657739429675022,3
5026,-0.508414796405668,0.8108575832184153,0.6672752656186213,-0.0728089257042867,0.0882480446963445,0.188525746635293,3
5037,-0.4964013382000926,0.8129248535829514,0.6716343462907642,-0.0460968196570441,0.1096512759324637,0.2207574736752949,3
5049,-0.4917502503905874,0.792241983034158,0.6730121842091261,-0.0013695626175822,0.1351313202748631,0.2529891696515062,3
5060,-0.4902009460554075,0.7798315829113199,0.6672752656186213,0.0011152889538075,0.1341121211729433,0.2454052558047698,3
5071,-0.4840005539107223,0.7752801991415298,0.6564912872589471,-0.0075816762791521,0.1178049021450241,0.2245494305986632,3
5082,-0.4580338322766312,0.7736263828499008,0.6381338996590552,-0.0200059137802284,0.0892672437982644,0.1866297681736088,3
5093,-0.4510587879643561,0.7901713237018113,0.6305623701431465,-0.0280816686648248,0.0597104030481857,0.1449181488251862,3
5105,-0.4514461140481511,0.7992740912413915,0.6301037174117955,-0.0287028790131882,0.0332111596038665,0.1145824002468684,3
5116,-0.4549352236062714,0.7984471830955772,0.6333161662555612,-0.0181422827351383,0.013846326571587,0.1107904433235002,3
5127,-0.4615229418347515,0.7930688911799726,0.634233471718263,-0.0007483522692188,0.0056927170576274,0.135438225452975,3
5138,-0.4692726383146166,0.7839661236403921,0.6317090019715239,0.0209940709911169,-0.0004224942524924,0.1790458543268724,3
5149,-0.4770255095984472,0.7678346368613891,0.6307916965088222,0.0607516350657356,-0.0177489290809322,0.2738449948576129,3
5161,-0.4890389678040225,0.7442541988344344,0.6296431849561358,0.0682061796019686,-0.0228449412891322,0.2928048416020353,3
5172,-0.4971759903676826,0.7231544852449233,0.6291845322247848,0.0663425383789422,-0.0208065263866917,0.2890128536148765,3
5183,-0.5053161877353082,0.7041254309877589,0.6369872678306778,0.0557819319229559,-0.0157105141784917,0.2719490163959288,3
5194,-0.508414796405668,0.7128113554866213,0.6367579414650024,0.0414940633767896,-0.0085761037664519,0.2586771361003492,3
5205,-0.506478165986693,0.7306000475250639,0.6344627980839387,0.0315546774471031,-0.0004224942524924,0.2454052558047698,3
5217,-0.5057035138191032,0.7516997611145751,0.6330868398898857,0.0315546774471031,0.0056927170576274,0.2397172893559268,3
5228,-0.5041542094839232,0.7661774316019494,0.6356094299123161,0.0414940633767896,0.0087503143633869,0.2378213108942426,3
5239,-0.506478165986693,0.7504593988958536,0.6374459205620289,0.0514334493064761,0.0107887292658274,0.2340293539708744,3
5250,-0.5091926233772235,0.7272924149418063,0.6344627980839387,0.0346607291889199,0.0107887292658274,0.2283413875220314,3
5261,-0.507640144238078,0.7206737608074799,0.632626307434226,0.0116758852318574,0.013846326571587,0.2245494305986632,3
5273,-0.507640144238078,0.7293596853063423,0.6356094299123161,-0.0069604659307888,0.0199615378817069,0.2207574736752949,3
5284,-0.5204314294152088,0.7541804855520186,0.6434121655182091,-0.017521072386775,0.0219999360855465,0.222653452136979,3
5295,-0.5219807337503888,0.7496291017822284,0.6470832670933256,-0.0218695550032549,0.0169039405759473,0.2245494305986632,3
5306,-0.5289557780626638,0.7363917935135759,0.6512130213997931,-0.0237331860483449,0.0097695134653068,0.2264454090603473,3
5317,-0.5394199319330593,0.7405297232104587,0.6539668175122078,-0.0206271241285918,0.0046735179557076,0.2321333755091903,3
5328,-0.5463949762453344,0.7533535774062041,0.6564912872589471,-0.0082028866275155,0.0036543188537877,0.2378213108942426,3
5340,-0.5549224996967549,0.7388759069188299,0.662226326125143,0.0073274127933139,0.0097695134653068,0.2454052558047698,3
5351,-0.5595735875062602,0.722741031172016,0.6670459392529459,0.0178880090713637,0.0474799804279459,0.249197212728138,3
5362,-0.55453517361296,0.7310135015979712,0.6640628167748557,0.0079486231416772,0.0658256143583055,0.2378213108942426,3
5373,-0.5409692362682392,0.7525266692603897,0.662226326125143,-0.0013695626175822,0.0719408256684254,0.2245494305986632,3
5384,-0.5305050823978438,0.7802450369842272,0.663374837677829,0.0004940786054442,0.0678640125621452,0.2169655167519267,3
5396,-0.5316702354531943,0.7823123073487633,0.6548841229749098,0.0122971057581571,0.057672004844346,0.2131735287647678,3
5407,-0.5332195397883741,0.7732095398091829,0.6493765307500804,0.0290698258757133,0.0444223831221864,0.2150695072264519,3
5418,-0.5390326058492644,0.7533535774062041,0.6489178780187296,0.0421152737251529,0.0332111596038665,0.2302373970475062,3
5429,-0.5413565623520341,0.7413566313562732,0.645705429174964,0.049569818261386,0.0332111596038665,0.2567811576386651,3
5440,-0.5429090414911797,0.7235679393178305,0.6376752469277043,0.035903160063583,0.0546143908399856,0.2776369517809811,3
5452,-0.5479474553844798,0.6900578256054811,0.6365286150993268,0.0079486231416772,0.0688832116640651,0.2567811576386651,3
5463,-0.5529826944738145,0.6793046307420827,0.6447881237122619,-0.0237331860483449,0.0923248578026248,0.2321333755091903,3
5474,-0.5549224996967549,0.698333684999247,0.6514423477654688,-0.0460968196570441,0.1157665039411844,0.2188614952136108,3
5485,-0.5324448876207841,0.7657639775290422,0.6512130213997931,-0.052308933318614,0.1259585116589837,0.2169655167519267,3
5496,-0.5239173641693636,0.7686615450072035,0.6498370632057402,-0.0436119680856543,0.1178049021450241,0.2188614952136108,3
5508,-0.5169423198570885,0.745081106980249,0.6470832670933256,-0.0318089409329413,0.0923248578026248,0.2169655167519267,3
5519,-0.5146183633543187,0.7252217556094595,0.6489178780187296,-0.0287028790131882,0.0658256143583055,0.2150695072264519,3
5530,-0.5188789502760633,0.7285327771605279,0.6512130213997931,-0.0367786338977846,0.0474799804279459,0.2188614952136108,3
5541,-0.5177169720246785,0.748802193636414,0.6519010004968196,-0.0547937848900039,0.0597104030481857,0.2264454090603473,3
5553,-0.5107419277124033,0.7678346368613891,0.6498370632057402,-0.0554149952383672,0.0760176220761048,0.2302373970475062,3
5564,-0.5049288616515132,0.7748667450686225,0.6447881237122619,-0.0541725745416405,0.0892672437982644,0.2264454090603473,3
5575,-0.4975633164514775,0.7752801991415298,0.6436414918838845,-0.0572786364613937,0.0964016542103041,0.2074855933797154,3
5586,-0.4921375764743824,0.7761071072873442,0.6502957159370915,-0.0628695397746003,0.1004784673165843,0.1828378112502406,3
5597,-0.4855498582459023,0.7963765237632302,0.6489178780187296,-0.0678392327394435,0.1035360813209447,0.161981986044134,3
5608,-0.4793494661012171,0.8067196535215322,0.6427223066968738,-0.0684604430878069,0.0984400691127446,0.1525020626719228,3
5620,-0.4793494661012171,0.7988606371684843,0.6330868398898857,-0.0616271190778736,0.0841712482886652,0.1506060842102386,3
5631,-0.4832259017431324,0.7818988532758561,0.6250547779183172,-0.0485816610504975,0.0637872161544659,0.1525020626719228,3
5642,-0.4824512495755425,0.7657639775290422,0.6243667988212908,-0.0324301512813047,0.0464607813260261,0.1430221703635021,3
5653,-0.4758635313470623,0.7492156477093213,0.6319383283371995,-0.0380210647724477,0.0627680003539452,0.1468141272868704,3
5664,-0.4688853122308217,0.7413566313562732,0.6459347555406394,-0.050445302273524,0.0902864429001843,0.1657739429675022,3
5676,-0.4572591801090413,0.748802193636414,0.6613090206624409,-0.0659756016943534,0.118824101246944,0.1942137130841359,3
5687,-0.4305178063073602,0.8005144534601133,0.6918282245403691,-0.0790210495437931,0.1381889342792235,0.2359253324325585,3
5698,-0.4266445454694105,0.8286462752568579,0.7067419572065107,-0.085233163205363,0.1504193402008624,0.28142893976814,3
5709,-0.4355562202006605,0.8311269996943013,0.7195917525815733,-0.085233163205363,0.163668961923022,0.3155566142060355,2
5720,-0.4506714618805611,0.8079600157402539,0.7289997727471945,-0.0883392251251162,0.185072209857742,0.3383084178738261,2
5732,-0.4591958105280162,0.7967899778361375,0.7377198138157895,-0.104490734894309,0.2156482497097406,0.3572682646182487,2
5743,-0.4599736374995717,0.830713545621394,0.7537801783103087,-0.1554301055953409,0.3134916139730578,0.3857080036710918,2
5754,-0.4626849200861365,0.8849065298825366,0.778562463597732,-0.1672331327480538,0.3868741162972947,0.4008758624283554,2
5765,-0.4704377913699671,0.9320674059364455,0.8038034016165059,-0.1659907120513271,0.4857366796625318,0.4160437211856189,2
5777,-0.4673360078956417,0.9568915951499326,0.817799828819946,-0.1678543430964172,0.6029449103553303,0.4312116110066732,2
5788,-0.444471069735876,0.9610261358790048,0.8448753777641236,-0.1821422319984563,0.7313642643748437,0.4501714266873051,2
5799,-0.4405946340939607,0.9916420710810036,0.8510709490859797,-0.2051270759555188,0.8740525060128398,0.48809112017615,2
5810,-0.4367181984520454,1.043764396009799,0.8432700932043954,-0.2250058376369554,1.0361055806831154,0.5335947275117315,2
5822,-0.4266445454694105,1.0934093854689626,0.8327154412103968,-0.2337028028699151,1.201216319453554,0.5582424785774157,2
5833,-0.4041637585894742,1.1236084776302433,0.8274371753512426,-0.2299755306017986,1.3663269914295888,0.5316987179862568,2
5844,-0.3530081422928475,1.159185861707129,0.8260612171571898,-0.2045058656071555,1.7312010881483328,0.3003887554487719,2
5855,-0.2848006538973453,1.2166898675193398,0.8180291551856214,-0.1684755636227169,1.906503784540768,0.167669952492977,2
5867,-0.2208537524235878,1.2775015059148087,0.7955420132792621,-0.0920664973932327,2.054288021688364,0.048222998768971,2
5878,-0.0611833365850571,1.2770880518419014,0.7317535688596093,0.0178880090713637,2.17149621898396,-0.0465761728255601,2
5889,0.0167136535132505,1.2837067059762275,0.688384569606619,0.1477212975732696,2.2550708960120045,-0.1110395958417734,2
5900,0.0829845114897779,1.2832932519033204,0.6415756748684964,0.2887363927015887,2.3121461793083222,-0.1773989973196708,2
5912,0.1306541930322498,1.223308521653666,0.5938475949433629,0.4303726981782711,2.355971857581081,-0.2740941473758861,2
5923,0.1942105936182468,1.1509133912811735,0.5458920683768629,0.5515090316251536,2.40693194626588,-0.3992290675487351,2
5934,0.2872228253964551,1.1132653478719414,0.5068840295203244,0.7322817417177734,2.504775310529197,-0.7025863358853791,2
5946,0.344578833837767,1.0934093854689626,0.4768253580980564,0.8503119318214115,2.5424857774918364,-0.8542650787769683,2
5957,0.3922485153802388,1.045421601269239,0.4414884208166345,1.00313006428038,2.5608313947235954,-1.023007596759924,2
5968,0.480609659348942,1.0032255630580271,0.3997265858476813,1.1957057709919034,2.533312952177356,-1.2239816864639286,2
5979,0.6468677934159528,0.9304135896448168,0.3386900578161344,1.4423269917477033,2.456872835848759,-1.4685635603607836,2
5991,0.741429329529341,0.7595587774676232,0.308860712759542,1.7218722082977145,2.350875845372881,-1.7491690871572183,2
6002,0.8115766231477836,0.5386489107261699,0.247824184727995,1.9784327335597096,2.2214372254570445,-2.0563184987999743,2
6014,0.8766855028729262,0.336351255201163,0.1665975378954612,2.164175106083363,2.0675376434105237,-2.395699264717244,2
6025,0.9375306208723584,0.1307459670928984,0.0933991935858783,2.193372063701996,1.7454699089724124,-3.002413925645695,2
6036,1.0041888049326808,-0.0454871369998997,0.0520960113482761,2.1032963392747086,1.5956472569223763,-3.1578845633330714,2
6048,1.070072336825413,-0.1729021597793492,0.0183662383508916,2.040553931243028,1.4295173691458207,-3.2128680629770736,2
6059,1.0859622306729035,-0.4128444697457776,-0.1053121022719304,2.029993324787041,1.232811575106073,-3.2071801275920206,2
6070,1.021628003115351,-0.5497757141377149,-0.1725423219010244,2.05856907205731,1.0238751580628755,-3.1958042257581254,2
6082,0.934428837398033,-0.7065663099004413,-0.2124695459445735,2.108266032239552,0.8424572503603205,-3.229931931259812,2
6093,0.8526585864617755,-0.8538406840506806,-0.2253193413196359,2.1747357125393494,0.7262682521666436,-3.301979299186552,2
6105,0.8135132535667584,-1.0019419663467342,-0.2225655452072214,2.2492811375458075,0.6885578519984078,-3.364546743741081,2
6116,0.8247520596047442,-1.15128699982932,-0.2416109119041397,2.400235638959686,0.7221914557589642,-3.364546743741081,2
6127,0.8662213490025306,-1.280359227868209,-0.308611805167558,2.458008354026524,0.6783658442806085,-3.3512748634455014,2
6139,0.9003250932002818,-1.3601999205208422,-0.4047559441148513,2.508947734905492,0.55096558917141,-3.410050351076663,2
6150,0.8518807594902199,-1.4900990567055457,-0.5433480174038152,2.56609922944603,0.3858549171953749,-3.535185240185721,2
6161,0.7925881206299333,-1.5016825486825696,-0.6036946866140269,2.64499329991595,0.2441858913578994,-3.6773839975775178,2
6173,0.7220535009276956,-1.5327085489896648,-0.6791881743046734,2.7624023610947166,0.1371697184787028,-3.82906289578806,2
6184,0.6286539430656923,-1.67460802019211,-0.7537605970840004,2.902175045704245,0.0627680003539452,-3.990221468860489,2
6195,0.508513011402008,-1.9025499951407967,-0.8198460646090256,3.0034325869358813,0.0423839682197459,-4.132420226252286,2
6207,0.4178279109305349,-2.089539683064804,-0.8774389377068227,2.9642962332096263,0.185072209857742,-4.191195713883447,2
6218,0.4054239518371991,-2.1226363427042463,-0.9380168130070184,2.935720485939357,0.2706851348022187,-4.103980487199443,2
6229,0.4499918499053456,-2.036173606949476,-1.0311759497519128,3.016478034785321,0.2818963583205386,-4.018661238977122,2
6240,0.4709201576461366,-1.9732913092216608,-1.2324117153564609,3.1935234420760152,0.2023986446861818,-3.9617817298076456,2
6252,0.2930358914573453,-2.0552026612066405,-1.382248299460759,3.352553393036398,0.0780560369785453,-3.9750536101032248,2
6263,0.0174883056808404,-2.1685568565394338,-1.5327728626620836,3.3966594397274963,-0.0391521603170514,-4.124836281341759,2
6274,-0.2359689941034884,-2.351822068839465,-1.5942680434249816,3.2885685541300536,-0.0839970376917302,-4.3239145479030325,2
6286,-0.3386707275845023,-2.4622753077262867,-1.6183604698910692,3.049402274850007,0.0026351197518679,-4.369418124174823,2
6297,-0.2875119364839101,-2.392777744831956,-1.675955222713175,2.595296349911645,0.312472414871138,-3.897318306791432,2
6308,-0.1662090265688408,-2.279010095426255,-1.7801295439077278,2.542493175140604,0.3155300288754984,-3.620504488408041,2
6320,-0.0914138199448585,-2.121809434558432,-1.899907456589758,2.639402396602744,0.1820146125519825,-3.491577611311824,2
6331,-0.3165804415923265,-1.8450493782963968,-2.127070259585798,2.8642811126747163,-0.0116337177708123,-3.559833022315196,2
6343,-0.562284870092825,-1.993564114665357,-2.2177068063082617,3.061826512351083,-0.1757251739463267,-3.753223322427626,2
6354,-0.7564463562129018,-2.1573868186353176,-2.290444618162185,3.044432581885163,-0.2389157019499661,-3.935237969216487,2
6365,-0.8304700854732597,-2.154902705230064,-2.3501051879996786,2.764265992139806,-0.2093588278026857,-3.9693656436543834,2
6377,-0.8184566272676844,-1.9290280006459124,-2.402651001328306,2.37662958465426,-0.1543219427102076,-3.796831168748058,2
6388,-0.787838817824088,-1.639857544261039,-2.4517550394474927,2.112614514856032,-0.1716483608400466,-3.123756857831385,2
6399,-0.7746633813671279,-1.480172769987962,-2.490533751938356,2.2617053750468834,-0.2348388888436859,-2.869695091626109,2
6411,-0.7572241831844573,-1.4557620348473823,-2.5240341985700647,2.410796245415672,-0.2980293667515227,-2.780583886480421,2
6422,-0.6200313794218973,-1.2633974439755806,-2.6633161306803643,2.497144707752779,-0.3785462961864002,-2.8507352759454774,2
6433,-0.6149929655285971,-1.1860374757603909,-2.7144841060906297,2.5443568061856943,-0.5008505390873987,-3.0232697508518016,2
6445,-0.7335814180531361,-1.1831399082822296,-2.752804165850141,2.567341650142757,-0.6394619008247112,-3.243203811555391,2
6456,-0.9343337972056583,-1.1736236866697425,-2.8023668567006785,2.543735595837331,-0.7322092695784294,-3.4764097525545603,2
6467,-1.0785016452804936,-1.089645064320226,-2.8294442853691653,2.35675080261695,-0.6700379573753107,-3.7892472549013214,2
6479,-1.061062447097823,-0.9113446898628916,-2.8340326924069843,2.329417476043408,-0.5721946599063967,-3.7380554636703622,2
6490,-0.9517729953883288,-0.6916717963723494,-2.845504649863685,2.37662958465426,-0.5008505390873987,-3.5522490774046687,2
6502,-0.8847274852442117,-0.5406763355659451,-2.871894099435145,2.413902307335425,-0.4712936482415174,-3.3436909185349744,2
6513,-0.8827876800212713,-0.3921615991969843,-3.019664866524055,2.3592356541883404,-0.4743512622458778,-3.203388170668653,2
6524,-0.8754253096252013,-0.2386820249853262,-3.125903125009688,2.2076599424260985,-0.537541806948118,-3.167364486705283,2
6536,-0.9428581458531134,-0.082718337368414,-3.204607181819791,2.031235745483768,-0.6944988026157901,-3.2223479863492845,2
6547,-1.0982647999659338,0.0016737390540092,-3.2261770182634484,1.8883569989544864,-0.8871279171380644,-3.3190431364055,2
6558,-1.2029031638659229,0.1580508807438288,-3.2050677142754505,1.7274631116109211,-0.9910864927115016,-3.301979299186552,2
6570,-1.198255250860383,0.2602316492046949,-3.15871559254437,1.6995085746890155,-0.910569563276624,-3.083941216944647,2
6581,-1.1304319137447103,0.2010738271008549,-3.143113880781202,1.643599500845204,-0.8249566216335465,-2.7388722360682083,2
6593,-0.9029413355944722,0.2383084164371799,-3.231913936853953,1.529917874781537,-0.7943805650829471,-2.338819755547768,2
6604,-0.7789239682888726,0.295395579208673,-3.2817059540701656,1.3615694327238026,-0.8596094745918252,-1.9880630877966017,2
6615,-0.6998649999391799,0.4699748670098424,-3.317042891351588,1.1814178922678007,-1.022681815158424,-1.743481120708375,2
6627,-0.726606373740861,0.6685480469108734,-3.3358589316828304,1.0571755070791014,-1.2499637993375778,-1.6373060472799486,2
6638,-0.8595354157777105,0.6784743336284575,-3.354443765924089,1.0130694603880028,-1.487437674344325,-1.6714337527816348,2
6649,-1.0037032638525458,0.5924284409144053,-3.3581167472235145,0.8714331345554476,-1.6260491028760409,-1.7832968858502758,2
6661,-1.052922249730197,0.5796045867186599,-3.3475602155052067,0.6906605465980646,-1.4935528689558442,-1.7093534152066892,2
6672,-0.9447979510760538,0.6706153172754096,-3.34388911393009,0.517963581212105,-1.350864644016449,-1.5121711581708903,2
6684,-0.4909755982229974,0.7173627392564116,-3.3023566053268123,0.3812969992340749,-1.2805398391895764,-1.2467334901317193,2
6695,-0.2305432541263933,0.7438373557937166,-3.308093523917317,0.2371758116521934,-1.3314998109841694,-1.0571351780064475,2
6706,-0.0328926584481962,0.9337246111958852,-3.353067807730036,0.0700698106470587,-1.544512957640643,-1.0836789385976064,2
6718,0.00818613006183,1.1525672075728024,-3.382209173689602,-0.0821271012856099,-1.928752004281872,-1.3984121708957271,2
6729,-0.1472205240509904,1.2514403434504109,-3.351001990714648,-0.1591573778634574,-2.3884121017385858,-1.952039403833232,2
6740,-0.3785875378431436,1.1521537534998951,-3.294097096713877,-0.064111960471327,-2.905147115122398,-2.970182198605693,2
6752,-0.5560844779481399,0.886150281069069,-3.3000633416700573,-0.0585210571581204,-2.806284551757161,-3.006205882569063,2
6763,-0.5804987204430855,0.5853963327071718,-3.319338034732651,-0.2293543202534353,-2.5066394981361024,-2.6345931721652565,2
6774,-0.0480079001280968,0.0302190149236612,-3.11076006597787,-0.5772329906394442,-2.121381252392953,-2.016502857913236,2
6786,0.2767586715260597,-0.0065987313719458,-3.031595476712107,-1.0002782760244011,-1.7962557870602762,-1.4287478884102545,2
6797,0.513938751379103,0.1026141452961537,-3.0270070696742883,-1.3910206640062095,-1.6668171671444396,-1.115910634573818,2
6808,0.5984234597058911,0.2308594651892284,-3.052706660424413,-1.6966567864330369,-1.7830061653381166,-1.1538303280626627,2
6820,0.4817716376003269,0.3334570766908125,-3.0731279853153843,-1.9246415644247628,-2.0694018477160285,-1.4590836369885722,2
6831,0.2674564959070492,0.3293191469939295,-3.073586638046736,-2.115974840261623,-2.452621812145544,-2.2459168109252454,2
6842,0.1147642991847591,0.1783202972197147,-3.0426106611617656,-2.112247567993507,-2.270184705341069,-2.401387231166088,2
6854,0.1147642991847591,-0.090577353721462,-2.951974114439301,-2.1762323967219146,-1.8747343182913137,-2.3615715592155584,2
6865,0.5449438869064945,-0.7284929316357672,-2.78332149000376,-2.386202033899357,-1.4395351829652858,-2.236436918616825,2
6876,0.8077001875058686,-0.8683217435058654,-2.8397696109974886,-2.742777842543245,-1.1877924871344592,-2.1700774860751366,2
6888,0.9394672512913332,-0.8008880620082597,-2.925815870957825,-3.1614746860234675,-1.2734054287775367,-2.2724603540698705,2
6899,0.9088526166517022,-0.566737498030343,-2.970560828404869,-3.498171254622908,-1.649490732316,-2.5663377611618845,2
6910,0.7642974424930724,-0.2490217657758175,-2.9092949740076466,-3.608746971435868,-2.137688488119473,-2.9834541099650638,2
6922,0.6057890049059267,-0.0595513534143667,-2.741790861124792,-2.892489923260397,-2.6554427006052057,-3.63377636870362,2
6933,0.5515316051349747,-0.2146847439176537,-2.56671333900172,-2.2743838862117345,-2.531100343376582,-3.631880390241936,2
6945,0.6007505910126264,-0.7417302399044197,-2.427431406891421,-1.80599008254927,-2.280376729757469,-3.449865991963401,2
6956,0.7065509331640001,-2.0539622989879187,-2.214723683830172,-1.6960355760846737,-2.02251857213751,-3.241307833093707,2
6967,0.7174024131181904,-2.256670019618022,-2.1812232371984623,-1.9675051904191347,-1.8319278391204747,-3.1863243023859145,2
6979,0.6894990610651245,-2.0432057151567093,-2.1610312386731665,-2.4334141425102094,-1.736122889759598,-3.39109050433224,2
6990,0.671672536798659,-1.623309214441318,-2.117891565785852,-2.798065706038693,-1.713700442722958,-3.7513273439659423,2
7001,0.6875624306461495,-1.372196866570773,-2.030010694900111,-2.6750657415467205,-1.7401996861672773,-4.151380041932918,2
7013,0.6550079907835784,-1.3693026880604224,-1.9063323542772888,-2.342717197556622,-1.723892467139358,-4.024349174362175,2
7024,0.5635450633405499,-1.4371464346631249,-1.7881597261549875,-1.9824142794916009,-1.6545867445241995,-3.806311092120269,2
7035,0.4364290873645903,-1.839671086380792,-1.5802716162215416,-1.6898234522451674,-1.5434937585387232,-3.628088433318568,2
7047,0.362795858991993,-2.118084958934456,-1.526118638608877,-1.5407327447233614,-1.4354583865576065,-3.542769185096248,2
7058,0.2399404699377783,-2.236400603142136,-1.5144173547865003,-1.5699297023419938,-1.372267875252568,-3.609128586574146,2
7070,0.1360799330093449,-2.2438461654222768,-1.4611816826365378,-1.7345507092846293,-1.3590182535304085,-3.832854852711429,2
7081,0.0911215340534379,-2.1983424946278074,-1.3840847901104718,-1.9383082226225656,-1.3590182535304085,-4.138108161637338,2
7092,0.0581797681070717,-2.082921028930478,-1.35173097530714,-2.145171808058192,-1.3314998109841694,-4.801701865778406,2
7104,0.0136118700389251,-1.9948044768840787,-1.3074446705914478,-2.100444540840794,-1.2723862296756168,-4.995092165890837,2
7115,-0.0402550288442662,-1.98859927682266,-1.2246108594748768,-2.034596081067296,-1.15619723148194,-5.02353190494368,2
7126,-0.2026399020733273,-2.1834479810997154,-1.0669715397646855,-2.0283839572277893,-0.9982209031235412,-4.942004613644728,2
7138,-0.3297558780492868,-2.0916069534293404,-1.0045590535390858,-2.073111214267251,-0.8269950198373862,-4.887021114000726,2
7149,-0.4487348314615862,-2.004734152569473,-0.9148416920036327,-2.102929392412184,-0.6527115225468709,-4.966652395774203,2
7161,-0.560735565757645,-2.016317644546497,-0.8606887143909681,-2.105414243983573,-0.4661976527319182,-5.169522619258845,2
7172,-0.6804891713375345,-2.0527219367691973,-0.8570176128158514,-2.124671805494583,-0.3000677649553624,-5.446336189131912,2
7183,-0.7831877300145829,-2.0183849149110333,-0.842791859246736,-2.2861869133644475,-0.2012052182887261,-6.189561641003316,2
7195,-0.844032848014015,-1.93399283848861,-0.7842798009619283,-2.351414162789582,-0.1645139504280068,-6.597198066434283,2
7206,-0.8761999617927912,-1.862838070334839,-0.6867597038205822,-2.381232340934514,-0.0473057698310109,-6.891075473526297,2
7217,-0.978127043106215,-1.7217688962460194,-0.4871311025000713,-2.3955202094806807,0.1432849297888227,-7.016210362635355,2
7229,-1.097490147798344,-1.5827669925217351,-0.4102616566153717,-2.4054596055883035,0.3562981098424978,-7.03137825245641,2
7240,-1.226545928997244,-1.3961907586706348,-0.3439487424489799,-2.393035368087227,0.5530040040738505,-7.027586264469251,2
7251,-1.337772011125713,-1.2319546006277675,-0.2982864795392347,-2.340232356163169,0.718114642652684,-7.073089871804832,2
7263,-1.439308591551376,-1.1326680106772522,-0.2721282360577587,-2.264444500282048,0.8373612381521204,-7.1754729572461,2
7274,-1.5241838007659243,-1.048275934254829,-0.2411503794484798,-2.140823315263776,0.945396626831838,-7.404886941321901,2
7285,-1.5737901127273717,-0.9163095277055888,-0.1899824040382143,-2.076838486535368,0.9892223051045969,-7.46745438587643,2
7297,-1.592778615245222,-0.7677914023688175,-0.1305511605663958,-1.991732455072924,1.054451214613475,-7.439014646823587,2
7308,-1.616418205572577,-0.5518463734700616,-0.0206418005056468,-1.888611272618261,1.1441410194586352,-7.274064116827789,2
7320,-1.659436799305544,-0.443870470052873,0.026856953053811,-1.7842476694668707,1.2480995950320724,-6.95553889654251,2
7331,-1.7551634884742828,-0.3263817339910074,0.0637991748949613,-1.687959821200077,1.33778934978143,-6.513774796673648,2
7342,-1.850499676755261,-0.211377111334396,0.0823858888605286,-1.58670242245955,1.388749304877422,-6.047362883611519,2
7354,-1.919481817318353,-0.1298792134223231,0.0982188067136812,-1.399717629239169,1.3408469470871895,-5.417896450079068,2
7365,-1.9741265431731,-0.1240874674338114,0.1333245379051188,-1.3692782509238104,1.2898868751009918,-5.298449496355063,2
7376,-2.0028077221977214,-0.1154015429349488,0.1847237194053689,-1.3848085503446397,1.2542148063421923,-5.235882051800533,2
7388,-2.003969700449107,-0.0053583691532242,0.2439237567872029,-1.397232787845716,1.2358691724118325,-5.1600426958866334,2
7399,-1.9706406084189452,0.2817448168671133,0.3522278322882234,-1.3556115825480708,1.237907587314273,-5.014051981571468,2
7410,-1.9454485389524443,0.3177356550169058,0.4029390346914471,-1.2437933534369567,1.2786756515826718,-4.7429268441041055,2
7422,-1.9229709268764736,0.2871231087827179,0.4442422169290491,-1.0959449139428317,1.394864516187542,-4.350458308494192,2
7433,-1.926072710350799,0.2850558384181818,0.4756768465453701,-0.966732835789289,1.581378436098297,-3.882150416970378,2
7444,-1.9380861685563744,0.3475212931052795,0.4871506837263797,-0.8157784056209656,1.942175836600967,-3.0953171187785418,2
7456,-1.9369241903049887,0.4149549746028854,0.4722350713359289,-0.8157784056209656,1.9798863035636056,-2.915198698961691,2
7467,-1.9206469703737037,0.4472213371287023,0.4531897046390106,-0.8872177076400517,1.893254146120008,-2.8772790365366365,2
7478,-1.7505124006647774,0.6586183712254787,0.4827897233299278,-0.965490404914626,1.7312010881483328,-2.9284705792572705,2
7490,-1.6342479046430085,0.8791147838940248,0.5240929055675301,-0.9735661597992225,1.5497831804457778,-2.937950502629482,2
7501,-1.5528618049865803,1.0532806176222869,0.5812290056582847,-0.8735510392643122,1.3938453170856222,-2.757832082812631,2
7512,-1.509843211253614,1.1074736018834297,0.6305623701431465,-0.6691723970015034,1.316386118545311,-2.3445077219966106,2
7524,-1.5001537095508082,1.0048793793496562,0.6647507958718823,-0.4113694408648453,1.3571541828137097,-1.8079446679797508,2
7535,-1.516430929482094,0.8129248535829514,0.6849427943971781,-0.1150513413502953,1.8219100419996104,-1.1140146561121336,2
7546,-1.5350352807201149,0.6739263388264781,0.6700290617310359,-0.2169301031082318,2.0797680660307627,-1.127286536407713,2
7558,-1.4962804487128585,0.6553073496744102,0.6165640632153978,-0.4486421126563286,2.1470353737434804,-1.311196944211723,2
7569,-1.3683866457653435,0.786036782972739,0.5578226785649146,-0.6710360280465936,1.9656174827395263,-1.498899277875311,2
7580,-1.069586795745278,1.2994281276501345,0.5364840482112414,-0.7356420671233648,1.6027816673344164,-1.5197551030814174,2
7592,-1.020367809867626,1.346175549631136,0.570672473939977,-0.5908996488372472,1.211408343869954,-1.2827571740950894,2
7603,-1.0409087915246222,1.1939363376381995,0.6073872491397608,-0.3132179310191526,0.9474350250356776,-0.8523691003152843,2
7614,-1.092451733905044,0.9639237033571662,0.6362974090093425,-0.0417483268626278,0.8913789408412796,-0.3992290675487351,2
7626,-1.11570717295257,0.7533535774062041,0.6525889795938463,0.0514334493064761,1.2745988384763915,-0.006760500875031,2
7637,-1.0823780809224088,0.7016413175825049,0.6594744097370373,-0.1144301310019319,1.5110535143812187,-0.099663694007878,2
7648,-1.0130054394715562,0.8497425998785584,0.6574085927216492,-0.2771876392126504,1.626223313472976,-0.272198168914202,2
7659,-0.9370450797922234,1.0768610556492415,0.6546547966092344,-0.3430361193420211,1.5701672125799773,-0.4162928737038922,2
7671,-0.7320321137179562,1.3523807496925553,0.6613090206624409,-0.2952027902048696,1.376519015845989,-0.4371486678462081,2
7682,-0.671186995718524,1.3391434414239027,0.6746174687688543,-0.1746876772842869,1.139045023949036,-0.3082218839413628,2
7693,-0.6878515417336045,1.2133788459682713,0.6888451020622789,-0.0411271165142645,0.9535502363457974,-0.073119933416719,2
7705,-0.726219047657066,1.0627968392347744,0.7062833044751599,0.0576455731459824,0.8954557372489589,0.1771498448013976,2
7716,-0.7494713119006267,0.9709558115643996,0.732441547956636,0.0862213204162515,0.9902415042065168,0.3534763076948804,2
7727,-0.733194091969341,0.9378591519249576,0.7540113844002931,-0.0721877153559234,1.422382958733781,0.3345164609504579,2
7738,-0.6568464062062133,0.9841931198330522,0.7556166689600214,-0.1989149521160125,1.547744782241938,0.1999016484691883,2
7750,-0.5487221075520698,1.116989823495917,0.7308343836725986,-0.2728391565961705,1.4927078804508591,0.0766627378218141,2
7761,-0.3491348814548978,1.4144327503067458,0.6569499399902979,-0.2455058300226281,1.2684836271662716,0.0254711951011803,2
7772,-0.3344069658587921,1.3925095175392308,0.647312593459001,-0.1380361751294214,0.9749534842805172,0.0520149556923392,2
7783,-0.3506841857900776,1.2795721652471554,0.6496077368400648,-0.0013695626175822,0.7446138860970032,0.1373342039146591,2
7795,-0.3654089265822178,1.1670448780601763,0.6523596532281705,0.1179031194283374,0.6630778243546093,0.2624690930237175,2
7806,-0.3700600143917231,1.1111980775074053,0.6484592252873788,0.1930697547831585,0.729325866171004,0.3970839055049872,2
7817,-0.3747111022012283,1.0814124394190314,0.6406583694057943,0.1874788718258247,1.0401823937893957,0.6189139446702608,2
7828,-0.3564972518509678,1.041283671572356,0.6413463485028208,0.0911910133810948,1.1206993900186764,0.6359777818892085,2
7840,-0.3006905477448359,1.0110845794110752,0.658784550915702,-0.0560362055867306,1.1023536892939132,0.5430745887563615,2
7851,-0.2336450376007186,1.0524537094764723,0.6681925710813232,-0.1908391972314161,0.976991882484357,0.3724361233755123,2
7862,-0.0960649077543637,1.331694490175951,0.6333161662555612,-0.243642198977538,0.7486906992032835,0.2055896149180313,2
7873,-0.0712601643716575,1.3606532201185104,0.6227596345372535,-0.2013998036874023,0.467391062430773,0.1316462685296068,2
7885,-0.0867627321353532,1.302735760233392,0.6133516143716322,-0.0839907425086363,0.2187058470155001,0.1714619094163452,2
7896,-0.1297813258683199,1.2162764134464326,0.606009411221399,0.0601304145394358,0.0648064152563857,0.2719490163959288,2
7907,-0.1848133778068618,1.143464440033222,0.6094511864308401,0.1725697827533586,0.0158847247754266,0.3724361233755123,3
7918,-0.227054144568273,1.0611396339753347,0.6404290430401189,0.1943121856578216,0.1351313202748631,0.4558593931361481,3
7930,-0.2429440384157636,0.9846065739059596,0.6773712648812691,0.1141758573381573,0.2329746845381804,0.4425875128405686,3
7941,-0.2193044480884079,0.9792282819903548,0.6881552432409436,0.009191043838404,0.2747619479084989,0.3970839055049872,3
7952,-0.1417947840738952,1.1054063315188931,0.6652094486032331,-0.0783998290174933,0.2268594732280605,0.3364124394121421,3
7963,-0.1375310223481849,1.1815259375153615,0.6576379190873246,-0.1175361827437487,0.1198433003488638,0.2890128536148765,3
7975,-0.1425694362414851,1.2319944461525285,0.6523596532281705,-0.1020058935008556,0.0148655256735068,0.2795329613064559,3
7986,-0.1600086344241556,1.245235143388992,0.6541961438778832,-0.0554149952383672,-0.0422097576228109,0.3136606357443513,3
7997,-0.1859753560582467,1.2208277972162227,0.6730121842091261,-0.0100665278505419,-0.0360945630112918,0.3667481879904599,3
8008,-0.2072909898828326,1.1765610996726643,0.6996290804219529,0.0116758852318574,0.1269777107609035,0.4387955248534097,3
8019,-0.2123294037761328,1.150086483135359,0.7186744471188713,-0.0057180452340621,0.2350130827420201,0.4463794697639368,3
8031,-0.1976014881800271,1.1488427319488266,0.7198210789472487,-0.038642275120811,0.3155300288754984,0.4274196230195143,3
8042,-0.172409418713526,1.163737245476919,0.7104130587816274,-0.0821271012856099,0.3491636827318573,0.3819160467477235,3
8053,-0.0871500582191482,1.314319252210416,0.7094957533189254,-0.1156725516986586,0.3318372646020183,0.3288285255654056,3
8064,-0.054208292272782,1.4007819879651862,0.7028415292657185,-0.1119452794305421,0.268646736598379,0.2965967985254036,3
8075,-0.0480079001280968,1.4347055557504425,0.6888451020622789,-0.0616271190778736,0.1799761976495419,0.2890128536148765,3
8087,-0.0631231418079975,1.4111251177234878,0.6792077555309818,0.0154031574999739,0.1014976664185042,0.2890128536148765,3
8098,-0.0867627321353532,1.3606532201185104,0.6757659803215409,0.0874637411129782,0.0607296021501055,0.2795329613064559,3
8109,-0.1026526259828438,1.302735760233392,0.669111756268334,0.1607667556006457,0.0760176220761048,0.2188614952136108,3
8120,-0.107691039876144,1.2402703055462942,0.656032634527596,0.153933421412776,0.0943632560064644,0.1733578878780294,3
8132,-0.1069163877085541,1.182766299734083,0.6436414918838845,0.1191455503030005,0.1065936786267042,0.1221663451573955,3
8143,-0.0960649077543637,1.1641506995498263,0.634233471718263,0.0787667860579549,0.1127088899368241,0.0709748024367617,3
8154,-0.0584720539984923,1.2257892460911095,0.619547185693488,0.0570243627976191,0.1106704917329844,0.0311591615500232,3
8165,-0.0565322487755519,1.2386164892546654,0.6133516143716322,0.0626152661108256,0.0994592682146645,0.0121993148056008,3
8177,-0.054595618356577,1.217103321592247,0.6057800848557235,0.0868425409425513,0.0821328333862247,0.0273671735628644,3
8188,-0.0607960105012621,1.1608396779987578,0.5982085553398148,0.1147970676865206,0.057672004844346,0.0766627378218141,3
8199,-0.0797876878230781,1.0979607692387527,0.5922423103836345,0.1328122085008035,0.0342303587057863,0.141126191901818,3
8210,-0.0948997546990132,1.041283671572356,0.5908663521895816,0.1073425231502876,0.0179231396778672,0.1790458543268724,3
8222,-0.0964522338381587,1.004465925276749,0.5938475949433629,0.0682061796019686,0.0158847247754266,0.1373342039146591,3
8233,-0.0867627321353532,1.0114980334839825,0.5968307174214531,0.0346607291889199,0.0107887292658274,0.1069984864001319,3
8244,-0.0669964026459473,1.0838931638564748,0.6050921057586971,0.0216152813394802,-0.0004224942524924,0.1145824002468684,3
8255,-0.0735872956783929,1.1037525152272645,0.6110583507148774,0.0315546774471031,-0.0146913150765718,0.1600860075824499,3
8267,-0.0794003617392831,1.1074736018834297,0.6227596345372535,0.0520546596548394,-0.0259025385948917,0.2264454090603473,3
8278,-0.0828862964934379,1.0954766558334987,0.6358387562779915,0.0706910311733585,-0.0320177499050116,0.2833249182298241,3
8289,-0.0906391677772685,1.0644506555264033,0.6436414918838845,0.0750395137898383,-0.0391521603170514,0.3098686788209831,3
8300,-0.1069163877085541,1.0479023257066824,0.6525889795938463,0.0216152813394802,-0.0340561481088513,0.275740973319297,3
8311,-0.1189298459141294,1.0731365800252657,0.6631455113121536,-0.0088240969758788,-0.0126529168727321,0.2529891696515062,3
8323,-0.1146660841884192,1.0996145855303816,0.6663579601559192,-0.0268392479680981,0.0056927170576274,0.2321333755091903,3
8334,-0.1018779738152539,1.106646693737615,0.6668166128872705,-0.0324301512813047,0.0097695134653068,0.2207574736752949,3
8345,-0.109240344211324,1.127332953254219,0.6592450833713619,-0.0212483446548915,-0.0024608924563321,0.222653452136979,3
8356,-0.1154407363560091,1.1347785155343597,0.6523596532281705,0.0067061922670141,-0.0248833394929719,0.2207574736752949,3
8367,-0.1266795423939945,1.1099577152886837,0.6599330624683881,0.035903160063583,-0.0391521603170514,0.1999016484691883,3
8379,-0.14373141449287,1.0706558555878225,0.6776005912469445,0.049569818261386,-0.0320177499050116,0.1733578878780294,3
8390,-0.1514842857767006,1.046248509415053,0.6835668362031248,0.0452213356449061,0.0026351197518679,0.1657739429675022,3
8401,-0.1507096336091107,1.0590723636107986,0.6757659803215409,0.0191304297680904,0.0964016542103041,0.249197212728138,3
8412,-0.1534209161956755,1.0764476015763342,0.6704877144623868,0.0104334645351307,0.1259585116589837,0.2928048416020353,3
8423,-0.1530335901118805,1.0789283260137776,0.6695704089996851,0.0079486231416772,0.1300353247652639,0.3155566142060355,3
8435,-0.1324926084548847,1.084306617929382,0.6608503679310901,0.0104334645351307,0.107612877728624,0.3136606357443513,3
8446,-0.0968395599219536,1.09837422331166,0.6165640632153978,0.0104334645351307,0.0637872161544659,0.2871168751531924,3
8457,-0.0972268860057486,1.1070601478105222,0.6117463298119038,0.0085698334900406,0.0230191518860672,0.2510931911898222,3
8468,-0.1014906477314589,1.1095442612157762,0.6179419011337595,0.0129183161065205,0.0056927170576274,0.2340293539708744,3
8479,-0.1119516267978888,1.1037525152272645,0.6193178593278126,0.0265849743043235,0.0118079283677473,0.2510931911898222,3
8491,-0.108465692043734,1.0913421151044265,0.6108290243492017,0.0458425459932695,0.0281151473956664,0.2871168751531924,3
8502,-0.108465692043734,1.057005093246263,0.6046334530273461,0.0508122389581127,0.0535951917380658,0.2890128536148765,3
8513,-0.1197044980817194,1.0218411632422844,0.6094511864308401,0.022857702036207,0.0617488012520253,0.254885179176981,3
8524,-0.1142787581046241,1.0375591959483803,0.614729452289994,-0.0144150104670218,0.0637872161544659,0.2283413875220314,3
8535,-0.0918011460286534,1.0950632017605917,0.6135828204616165,-0.0380210647724477,0.041364769117826,0.2169655167519267,3
8546,-0.0716474904554525,1.1600127698529432,0.6096805127965157,-0.0336725821559678,-0.0034800915582519,0.2245494305986632,3
8558,-0.0821116443258479,1.1484292778759195,0.6080752282367873,-0.0113089485472686,-0.0493441680348506,0.2435092773430857,3
8569,-0.0941251025314233,1.1269194991813116,0.6154174313870203,0.0104334645351307,-0.07482421237725,0.2643650714854016,3
8580,-0.1007128207599034,1.1252622939218722,0.6294138585904602,0.0203728606427535,-0.0758434114791698,0.2719490163959288,3
8591,-0.0991635164247235,1.1484292778759195,0.6434121655182091,0.0222364916878436,-0.0585169933493308,0.2662610499470857,3
8602,-0.1045892564018187,1.1567051372696855,0.6525889795938463,0.0458425459932695,-0.0381329445165307,0.2700530379342446,3
8614,-0.1135041059370342,1.1318809480561984,0.6548841229749098,0.0595092041910725,-0.0381329445165307,0.2738449948576129,3
8625,-0.116602714607394,1.0909252720637084,0.6539668175122078,0.0576455731459824,-0.041190558520891,0.2662610499470857,3
8636,-0.1212538024168993,1.0702424015149152,0.6505250423027669,0.0446001252965428,-0.0513825829372911,0.2397172893559268,3
8647,-0.1541955683632654,1.05741854731917,0.6441001446152356,0.03031224657244,-0.06361298885893,0.2017976269308724,3
8658,-0.1782256595783817,1.0292867255224252,0.644329470980911,0.0172667987230004,-0.0666706028632904,0.1581900291207657,3
8680,-0.199538118599002,0.9850200279788666,0.6519010004968196,0.0017364993021709,-0.0197873272847719,0.1278542805424479,3
8691,-0.1925630742867269,0.9916420710810036,0.6480005725560275,-0.0007483522692188,0.0169039405759473,0.1487101057485545,3
8703,-0.1844260517230668,1.0135653038485186,0.6424929803311982,-0.0007483522692188,0.0403455700159062,0.1714619094163452,3
8714,-0.1751238761040563,1.0197705039099376,0.6395098578531081,0.011054674883494,0.0423839682197459,0.2093815718413995,3
8725,-0.163110417898481,0.9953631577371684,0.6358387562779915,0.0160243780262737,0.0332111596038665,0.2359253324325585,3
8736,-0.1538082422794705,0.9738533790425608,0.6307916965088222,0.0135395264548838,0.0209807369836267,0.2662610499470857,3
8748,-0.14373141449287,1.0503864391119364,0.6404290430401189,0.011054674883494,0.0067119161595473,0.2909088631403512,3
8759,-0.1348197397616201,1.080585531273217,0.6514423477654688,0.0216152813394802,-0.0075569046645321,0.3079727003592989,3
8770,-0.1305559780359098,1.0723096718794514,0.654425470243559,0.0446001252965428,-0.0197873272847719,0.3174526237315102,3
8781,-0.1309433041197047,1.0487292338524967,0.6514423477654688,0.0651001176822155,-0.0330369490069315,0.3174526237315102,3
8792,-0.1336545867062696,1.0325977470734935,0.6493765307500804,0.0706910311733585,-0.0462865707290911,0.3098686788209831,3
8804,-0.1510969596929057,1.022668071388099,0.6532788384151816,0.0489486079130226,-0.0493441680348506,0.2965967985254036,3
8815,-0.1751238761040563,1.0114980334839825,0.6645214695062065,0.0309334670987398,-0.0340561481088513,0.2871168751531924,3
8826,-0.1921757482029319,0.9945362495913542,0.6750761215002056,0.0129183161065205,-0.0116337177708123,0.28142893976814,3
8837,-0.2030272281571223,0.9841931198330522,0.6824202043747474,0.0017364993021709,0.0118079283677473,0.2833249182298241,3
8848,-0.2220157306749727,0.9937093414455396,0.6895330811593051,-0.0019907729659455,0.0321919605019466,0.2947008200637195,3
8860,-0.2224062315627332,1.016876325399587,0.6893037547936297,-0.0007483522692188,0.0505375944323063,0.3079727003592989,3
8871,-0.2127167298599278,1.0317674499598686,0.6915970184503846,0.0023577096505343,0.0688832116640651,0.3193486021931943,3
8882,-0.1976014881800271,1.037145741875473,0.6915970184503846,0.009191043838404,0.0882480446963445,0.3326204824887738,3
8893,-0.189851791700162,1.0354919255838442,0.683108183471774,0.0185092194197271,0.1086320768305439,0.3402043963355103,3
8904,-0.1801622899973566,1.0313539958869613,0.6704877144623868,0.0203728606427535,0.1402273324830631,0.3174526237315102,3
8916,-0.1673741796241913,1.0400433093536343,0.6592450833713619,0.0141607368032472,0.1483809419970227,0.3022847339104559,3
8927,-0.1584593300889758,1.0623833851618671,0.6500663895714156,0.0147819471516105,0.1534769542052227,0.2965967985254036,3
8938,-0.1549702205308554,1.0739668771388908,0.6424929803311982,0.0222364916878436,0.1534769542052227,0.3003887554487719,3
8949,-0.1588466561727707,1.033011201146401,0.6305623701431465,0.0259637639559601,0.1453233446912632,0.3022847339104559,3
8960,-0.1541955683632654,1.0263925470120745,0.6204663708804986,0.0178880090713637,0.1259585116589837,0.2965967985254036,3
8972,-0.1468331979671954,1.0483157797795897,0.6101391655278665,0.0042213508735607,0.0943632560064644,0.2871168751531924,3
8983,-0.1452838936320155,1.0714827637336368,0.6032556151089844,0.0029789199988976,0.0556335899419055,0.2776369517809811,3
8994,-0.1510969596929057,1.080585531273217,0.5970600437871286,0.0216152813394802,0.0250575500899069,0.2738449948576129,3
9005,-0.162723091814686,1.061553088048242,0.5954547592274002,0.0651001176822155,-0.0106145186688925,0.2681570594725605,3
9017,-0.1739618978526714,1.028873271449518,0.5963720646901021,0.0737970829151752,-0.0157105141784917,0.2776369517809811,3
9028,-0.1824862465001264,1.0032255630580271,0.5966013910557777,0.068827389950332,-0.0197873272847719,0.2833249182298241,3
9039,-0.1964395099286422,0.9730230819289356,0.6014210041835805,0.0483273873867229,-0.0197873272847719,0.2719490163959288,3
9050,-0.1968268360124371,0.967231335940424,0.6126636352746057,0.0147819471516105,-0.0106145186688925,0.2416132988814015,3
9061,-0.1859753560582467,1.0156359631808654,0.6204663708804986,-0.0168998518604752,-0.0014416933544122,0.2131735287647678,3
9072,-0.1751238761040563,1.0441812390505172,0.6280379003964074,-0.0274604583164615,-0.0004224942524924,0.2055896149180313,3
9084,-0.1650470483174559,1.0450081471963315,0.6319383283371995,-0.0156574311637485,-0.0065377055626123,0.2207574736752949,3
9095,-0.1600086344241556,1.0379726500212874,0.6330868398898857,0.0017364993021709,-0.013672115974652,0.2340293539708744,3
9106,-0.1510969596929057,1.0392164012078198,0.6360680826436671,0.0116758852318574,-0.0320177499050116,0.2397172893559268,3
9117,-0.1514842857767006,1.0524537094764723,0.6438708182495599,0.0135395264548838,-0.0381329445165307,0.249197212728138,3
9128,-0.162723091814686,1.0532806176222869,0.6509836950341177,0.0216152813394802,-0.0381329445165307,0.2586771361003492,3
9140,-0.1696981361269612,1.0383894930620057,0.6558014284376119,0.0290698258757133,-0.0309985508030918,0.2529891696515062,3
9151,-0.2014779238219424,0.9957766118100758,0.6672752656186213,0.0209940709911169,-0.018768128182852,0.222653452136979,3
9162,-0.2076783159666275,1.0007414496527731,0.6748467951345302,0.0011152889538075,-0.0024608924563321,0.1847337897119247,3
9173,-0.2030272281571223,1.0297001795953324,0.6769126121499183,-0.0193847034318651,0.013846326571587,0.1487101057485545,3
9184,-0.1937250525381118,1.0541075257681014,0.6773712648812691,-0.0262180376197348,0.0250575500899069,0.1240623236190796,3
9196,-0.1890739647286066,1.0441812390505172,0.6737001633061528,-0.0156574311637485,0.0291343464975863,0.1202703666957114,3
9207,-0.190239117783957,1.0077735578600069,0.6649801222375578,0.0116758852318574,0.0260767491918267,0.1506060842102386,3
9218,-0.1921757482029319,0.970128903418585,0.6613090206624409,0.0023577096505343,0.0281151473956664,0.1600860075824499,3
9229,-0.199150792515207,0.955234389890493,0.6670459392529459,-0.0150362208153852,0.0434031840202665,0.1638779645058181,3
9240,-0.2096149463856024,0.9643371574300734,0.6730121842091261,-0.0293240893615515,0.0658256143583055,0.1657739429675022,3
9252,-0.2007032716543524,0.9879175954570278,0.6668166128872705,-0.0355362132010579,0.0821328333862247,0.1657739429675022,3
9263,-0.1944997047057018,0.9961900658829832,0.657867245453,-0.0305665202362146,0.0821328333862247,0.1657739429675022,3
9274,-0.1882993125610166,1.0007414496527731,0.6470832670933256,-0.0156574311637485,0.0668448134602254,0.1733578878780294,3
9285,-0.1797749639135616,0.9891579576757497,0.6395098578531081,0.0042213508735607,0.0423839682197459,0.1828378112502406,3
9296,-0.1844260517230668,0.959372319587376,0.6369872678306778,0.0253425536075968,0.0219999360855465,0.1923177346224518,3
9308,-0.2003159455705575,0.9320674059364455,0.6385925523904062,0.03031224657244,0.0291343464975863,0.2131735287647678,3
9319,-0.2065163377152426,0.9341380652687924,0.6438708182495599,0.0085698334900406,0.0484991795298657,0.2169655167519267,3
9330,-0.2014779238219424,0.9630967952113516,0.6530495120495058,-0.0156574311637485,0.0637872161544659,0.2188614952136108,3
9341,-0.1937250525381118,0.989984865821564,0.6647507958718823,-0.0299453098878513,0.0658256143583055,0.2207574736752949,3
9352,-0.1755112021878513,1.0206008010235628,0.6675045919842967,-0.0293240893615515,0.0607296021501055,0.222653452136979,3
9363,-0.1731872456850814,1.021427709169377,0.6629161849464782,-0.0231119756999816,0.0495183786317856,0.2150695072264519,3
9375,-0.1774478326068262,1.0160494172537726,0.6608503679310901,-0.017521072386775,0.0393263709139863,0.1999016484691883,3
9386,-0.1782256595783817,1.0061197415683778,0.6569499399902979,-0.0156574311637485,0.0403455700159062,0.1828378112502406,3
9397,-0.1743492239364664,1.0003279955798658,0.6512130213997931,-0.0156574311637485,0.0535951917380658,0.1771498448013976,3
9408,-0.1793876378297666,0.994122795518447,0.6470832670933256,-0.0231119756999816,0.0831520491867453,0.2036936053925566,3
9419,-0.1855880299744517,0.9961900658829832,0.645705429174964,-0.0262180376197348,0.0933440569045446,0.2112775503030837,3
9431,-0.1871373343096317,1.008187011932914,0.645705429174964,-0.0200059137802284,0.1004784673165843,0.2074855933797154,3
9442,-0.1879119864772216,1.0110845794110752,0.647312593459001,-0.0057180452340621,0.102516865520424,0.2055896149180313,3
9453,-0.1929504003705218,0.9713692656373067,0.6418050012341718,0.0067061922670141,0.0964016542103041,0.2093815718413995,3
9464,-0.1848133778068618,0.9486157357561668,0.6330868398898857,0.0098122541867673,0.0780560369785453,0.2112775503030837,3
9476,-0.1747365500202613,0.949029189829074,0.6273499212993809,0.0036001405251974,0.0535951917380658,0.2131735287647678,3
9487,-0.1774478326068262,0.9659909737217024,0.6307916965088222,-0.0038544040110356,0.0321919605019466,0.2188614952136108,3
9498,-0.1886866386448116,0.9833662116872376,0.6401997166744433,-0.0044756143593989,0.0281151473956664,0.2283413875220314,3
9509,-0.1933377264543168,0.982125849468516,0.6480005725560275,0.011054674883494,0.0780560369785453,0.2605731145620334,3
9520,-0.189851791700162,0.9651640655758876,0.6498370632057402,0.0079486231416772,0.1035360813209447,0.2643650714854016,3
9531,-0.1809369421649465,0.9597857736602832,0.6445587973465865,-0.0013695626175822,0.1106704917329844,0.2586771361003492,3
9543,-0.1569100257537959,0.9866772332383064,0.6323969810685504,-0.0075816762791521,0.0943632560064644,0.2473012342664539,3
9554,-0.1557448726984454,0.9916420710810036,0.6296431849561358,-0.0082028866275155,0.0607296021501055,0.2359253324325585,3
9565,-0.1638850700660709,0.9895714117486568,0.6266619422023545,-0.0063392555824254,0.0240383509879871,0.2264454090603473,3
9576,-0.1778351586906212,0.9875041413841208,0.6275792476650564,-0.0069604659307888,-0.0024608924563321,0.2188614952136108,3
9587,-0.1871373343096317,0.992468979226818,0.6317090019715239,-0.0106877381989053,-0.0106145186688925,0.2112775503030837,3
9599,-0.1852007038906568,1.014809055035051,0.632167654702875,-0.0075816762791521,0.0005967048494274,0.2055896149180313,3
9610,-0.1848133778068618,1.030940541814054,0.6284965531277584,0.0334183084921932,0.036268756909626,0.2093815718413995,3
9621,-0.1886866386448116,1.008187011932914,0.6319383283371995,0.0508122389581127,0.0484991795298657,0.2169655167519267,3
9632,-0.1875246603934267,0.9659909737217024,0.6431828391525335,0.0464637563416328,0.0586912039462658,0.2245494305986632,3
9643,-0.1739618978526714,0.9850200279788666,0.6523596532281705,0.0259637639559601,0.0648064152563857,0.2302373970475062,3
9655,-0.171634766545936,1.021427709169377,0.6532788384151816,0.0085698334900406,0.0617488012520253,0.2302373970475062,3
9666,-0.1747365500202613,1.0276329092307963,0.6505250423027669,0.0048425612219241,0.0525759926361459,0.2245494305986632,3
9677,-0.1782256595783817,0.9990876333611444,0.6463952879962993,0.011054674883494,0.0423839682197459,0.2131735287647678,3
9688,-0.1805496160811515,0.971782719710214,0.6466246143619747,0.0141607368032472,0.0332111596038665,0.1999016484691883,3
9699,-0.1801622899973566,0.9684750871269562,0.6519010004968196,0.0073274127933139,0.0270959482937466,0.188525746635293,3
9711,-0.1820989204163314,0.9792282819903548,0.6585552245500266,-0.0057180452340621,0.0372879727101467,0.1904217250969771,3
9722,-0.1867500082258367,0.986263779165399,0.6638334904091803,0.0060849819186508,0.0484991795298657,0.2055896149180313,3
9733,-0.1863626821420417,0.9812989413227016,0.663374837677829,0.0272061948306232,0.0566528057424261,0.2188614952136108,3
9744,-0.190239117783957,0.9659909737217024,0.6594744097370373,0.0470849666899962,0.0607296021501055,0.2264454090603473,3
9755,-0.1855880299744517,0.9581319573686542,0.6615383470281168,0.0545395112262292,0.0607296021501055,0.2283413875220314,3
9767,-0.1836482247515113,0.9477888276103522,0.6617676733937922,0.0508122389581127,0.0607296021501055,0.2378213108942426,3
9778,-0.1855880299744517,0.9407567194031188,0.6585552245500266,0.0402516325021265,0.0637872161544659,0.249197212728138,3
9789,-0.1848133778068618,0.9378591519249576,0.6519010004968196,0.0265849743043235,0.0709216265665056,0.2473012342664539,3
9800,-0.1770605065230312,0.9424105356947476,0.6454761028092884,0.0085698334900406,0.0811136342843048,0.2321333755091903,3
9811,-0.1650470483174559,0.9548209358175858,0.6411170221371454,-0.0287028790131882,0.0933440569045446,0.2074855933797154,3
9823,-0.1576846779213858,0.9726096278560284,0.6344627980839387,-0.0342937925043312,0.085190447390585,0.2169655167519267,3
9834,-0.1534209161956755,0.9961900658829832,0.6255134306496682,-0.0218695550032549,0.0699024107659849,0.2321333755091903,3
9845,-0.1541955683632654,0.975920649407097,0.6161054104840468,0.0017364993021709,0.0546143908399856,0.2473012342664539,3
9856,-0.1658217004850458,0.9271059570615592,0.6186298802307859,0.0203728606427535,0.0484991795298657,0.2643650714854016,3
9867,-0.1774478326068262,0.9068331516178624,0.6257427570153437,0.0185092194197271,0.0556335899419055,0.275740973319297,3
9879,-0.1758985282716463,0.9320674059364455,0.6303330437774711,-0.0032331936626722,0.0648064152563857,0.2776369517809811,3
9890,-0.1665963526526358,0.9709558115643996,0.6310210228744975,-0.0249756067450716,0.0678640125621452,0.2662610499470857,3
9901,-0.1569100257537959,0.9808854872497944,0.6268912685680299,-0.0262180376197348,0.0515567935342261,0.2188614952136108,3
9912,-0.1526462640280856,0.968061633054049,0.6202370445148232,-0.0249756067450716,0.0393263709139863,0.2017976269308724,3
9923,-0.1541955683632654,0.9651640655758876,0.6211543499775253,-0.0305665202362146,0.0321919605019466,0.1980056700075042,3
9934,-0.1584593300889758,0.9817123953956088,0.6280379003964074,-0.0336725821559678,0.0311727614000268,0.2093815718413995,3
9946,-0.171634766545936,0.9966035199558904,0.6408876957714698,-0.0268392479680981,0.0332111596038665,0.2302373970475062,3
9957,-0.171634766545936,0.9730230819289356,0.6418050012341718,-0.0150362208153852,0.0352495578077061,0.2473012342664539,3
9968,-0.1654343744012509,0.9581319573686542,0.6411170221371454,-0.0075816762791521,0.0372879727101467,0.254885179176981,3
9979,-0.1611706126755406,0.967231335940424,0.6454761028092884,-0.011930158895632,0.0372879727101467,0.249197212728138,3
9991,-0.1646597222336609,0.992468979226818,0.6553427757062606,-0.0218695550032549,0.0342303587057863,0.2416132988814015,3
10002,-0.171247440462141,1.004465925276749,0.663374837677829,-0.0287028790131882,0.0301535622981069,0.2207574736752949,2
10013,-0.1758985282716463,0.992468979226818,0.666587286521595,-0.0293240893615515,0.0332111596038665,0.2112775503030837,2
10024,-0.1790003117459716,0.9784013738445404,0.6679632447156478,-0.0361574235494212,0.0393263709139863,0.2074855933797154,2
10035,-0.1817115943325365,0.9705423574914924,0.6704877144623868,-0.0535513540153407,0.0535951917380658,0.2055896149180313,2
10047,-0.1824862465001264,0.9622698870655372,0.6858619795841887,-0.0802634702405198,0.0872288455944247,0.1923177346224518,2
10058,-0.1828735725839214,0.9883310495299352,0.6936628354657727,-0.1107028587338154,0.141246531584983,0.167669952492977,2
10069,-0.1782256595783817,1.0164628713266797,0.698711774959251,-0.1398998061745114,0.1983218315799016,0.1335422469912909,2
10080,-0.1677615057079862,1.033011201146401,0.6973339370408894,-0.1666119223996905,0.2421474931540598,0.1051025079384478,2
10092,-0.1569100257537959,1.0193570498370303,0.6913676920847092,-0.1933240488028059,0.268646736598379,0.0861426611940253,2
10103,-0.1491571544699653,1.0007414496527731,0.6798957346280085,-0.2914755179367531,0.3308180655000985,0.0425350633839186,2
10114,-0.1394676527671598,1.0036390171309344,0.6764539594185671,-0.3703694459155636,0.3878933153992146,0.0046154009588643,2
10126,-0.1185425198303345,1.054520979841009,0.6762246330528917,-0.4442936300398487,0.4531222249080928,-0.0295123356066123,2
10137,-0.0755239260973678,1.2038660133235946,0.679666408262333,-0.4921269489990638,0.5163127362131313,-0.0427842159021918,2
10148,-0.0677710548135372,1.2208277972162227,0.6918282245403691,-0.5169754240012163,0.5856184922254913,-0.0389922589788236,2
10159,-0.0681615557012978,1.1935228835652925,0.6984824485935756,-0.5424451195296687,0.6773466451786888,-0.0352002709916647,2
10171,-0.0607960105012621,1.1620834291852902,0.6915970184503846,-0.5964905521504538,0.7925163774760424,-0.0465761728255601,2
10182,-0.0278542445548959,1.2166898675193398,0.678747223075322,-0.6946420823520195,0.9097245747716391,-0.0825998567889303,2
10193,0.0217520674065508,1.3412107117884386,0.669111756268334,-0.9077177000257244,1.0422207919932351,-0.2020467794491457,2
10204,0.0822098593221879,1.4897254481573996,0.663374837677829,-0.9344298162509036,1.0524127997110344,-0.2608222670803066,2
10216,0.1461535859919799,1.6361729141618242,0.6597037361027127,-0.8903237695598047,1.039163177988875,-0.3082218839413628,2
10227,0.1930486153668618,1.7391839797363156,0.6519010004968196,-0.7965208441099559,1.016740747650836,-0.3423495894430489,2
10238,0.2438169055796935,1.875701770055345,0.6287258794934338,-0.671657238394957,0.9963567155166366,-0.3556214697386284,2
10249,0.2678438219908442,1.9228626461092544,0.6250547779183172,-0.5213239167956326,0.9871838902021562,-0.3575174482003125,2
10261,0.3003982618534154,1.9212088298176253,0.6181712274994351,-0.3685058148704735,0.9922799024103564,-0.3632053835853649,2
10272,0.3426422034187921,1.92658712173323,0.6044041266616706,-0.2411573474061482,1.0085871381368765,-0.4011249838828379,2
10283,0.3779079258679281,1.9691966140173487,0.5862760654274541,-0.1454907196656544,1.0269327553686352,-0.4826522751817895,2
10295,0.4065891048925495,2.037867268765866,0.5672306987305361,0.0607516350657356,1.0452783892989947,-0.7234421610914857,2
10306,0.4426294795092756,2.121435826010286,0.5571346994678882,0.2365545911258937,1.0605664259235947,-0.8353052320325459,2
10317,0.4716948098137264,2.204587540213987,0.5559880676395108,0.4794484480121493,1.0952192788818735,-0.9509602288331838,2
10328,0.4186025630981249,1.9675394087579088,0.5633302707897438,0.7490544618353295,1.1665634664952749,-1.095054840431502,2
10340,0.4023253431668393,1.6572726277513354,0.5862760654274541,0.937281604506882,1.32046291495299,-1.2543174350422464,2
10351,0.4313906734712901,1.4272599934703016,0.5862760654274541,0.959645238115581,1.5783208220939369,-1.3699724007790932,2
10362,0.513938751379103,1.3407972577155314,0.5399258234206826,0.8478270802500216,1.8759277279901687,-1.4003081493574114,2
10373,0.625164833507572,1.3767880958653242,0.4768253580980564,0.7024635635728411,2.1205361302991617,-1.364284465394041,2
10385,0.7201136957047553,1.5025493023531449,0.430473236366976,0.6788575194453518,2.324376601928562,-1.2619013799527736,2
10396,0.8104146448963987,1.664718190031476,0.4137230130511213,0.9174028224695724,2.303992569794363,-1.3320527383540393,2
10407,0.9150530087963876,1.788825580227668,0.4054635044381862,1.3019330866118746,2.2112452177392456,-1.5538828085831031,2
10418,0.984812976331035,1.7313215744154569,0.3740269950975562,1.7429934110317509,2.058364834794644,-1.9463514684481795,2
10430,1.0735614463835332,1.168288629246709,0.2104233101554937,2.1300084453219514,1.8851005366060485,-2.435514905603983,2
10441,1.077434707221483,0.8766340594565816,0.1413565998766872,2.389675042681636,1.719989864630013,-2.888654938370532,2
10453,1.063871944680728,0.5307865054053112,0.1119859075514456,2.511432576298945,1.576282423890097,-3.2052841491303368,2
10464,1.110376473167849,0.2333435785944825,0.1016605819231224,2.5164022692637884,1.4651894379046202,-3.3304190382393952,2
10475,1.1801364407024968,0.1237138588856649,0.0764196439043483,2.453659871410044,1.2399459855181127,-3.2242439648109684,2
10487,1.2119162283974785,0.0984796045670815,0.02639830032246,2.5350386306043715,1.0789120431553536,-3.2071801275920206,2
10498,1.1816857450376768,-0.0363843694603193,-0.0130683912654294,2.667978143873013,0.9260317937995584,-3.292499375814341,2
10510,1.0293808743991817,-0.4707619296308959,-0.1147201224375519,2.787250836096869,0.8118812105083218,-3.4802017405417187,2
10521,1.0041888049326808,-0.7657241320042814,-0.1693298730572586,2.8617962712812632,0.718114642652684,-3.715303660002572,2
10532,1.0173642413896409,-1.052827318024619,-0.2069619537197442,2.8499932441285503,0.6386169791141298,-3.897318306791432,2
10544,1.018142068361196,-1.2034093247581157,-0.2769459694612528,2.737553875914627,0.5652344266940903,-3.9712616531798575,2
10555,1.007677914490801,-1.2873913360754428,-0.3728607820428705,2.5990236221797614,0.4602566520187333,-3.9769495885649095,2
10566,0.967370603344399,-1.3837803585477968,-0.4531701234127023,2.4642204676880937,0.1392081333811433,-3.9560937633588025,2
10578,0.8766855028729262,-1.4429381806516368,-0.5004395506064847,2.5021144007176224,-0.0085761037664519,-3.948509849512066,2
10589,0.7739837693919123,-1.506647386525267,-0.5240733243412216,2.593432708688619,-0.1033618707240097,-3.948509849512066,2
10600,0.6627576872634434,-1.803680248230999,-0.6326067262079175,2.65803874776539,-0.158398739117887,-3.9750536101032248,2
10612,0.6887244088975346,-1.8045071563768136,-0.7053464177861495,2.6574175374170266,-0.2093588278026857,-4.050892934953335,2
10623,0.6937628227908348,-1.7726508589560932,-0.7760184126246844,2.637538755379717,-0.2817221644222045,-4.172235867139024,2
10635,0.6022998953478063,-1.886001665321076,-0.8349891236408431,2.6319478520665105,-0.3703926866724407,-4.3106426676074525,2
10646,0.4751839193718468,-2.1065014669574325,-0.8602300616596171,2.586599221831703,-0.4366407952832387,-4.4130257530487205,2
10657,0.399610885776309,-2.2384678735066723,-0.8962549780380654,2.2672962885380263,-0.4121799500427591,-4.265139060271872,2
10669,0.3658944676623528,-2.1855152514642517,-0.9632577510257926,2.1747357125393494,-0.4019879423249599,-4.085020640455021,2
10680,0.316288155700906,-2.090780045283526,-1.0203919713922385,2.2356144793480044,-0.4223719744591592,-3.9466138710503817,2
10691,0.1949852457858367,-2.0779561910877806,-1.1330570072897108,2.400856849308049,-0.4549864292135983,-3.925758045844276,2
10703,0.1151516252685541,-2.1623482675102044,-1.2012064121058157,2.57479619467899,-0.4906585146709985,-4.041413011581123,2
10714,-0.0162281124331156,-2.328655084885418,-1.2730269184970364,2.6524478444521837,-0.5079849494994384,-4.223427409859658,2
10725,-0.1522589379442906,-2.444073161614937,-1.3503531373887785,2.5536749919449537,-0.4794472744540778,-4.358042253404719,2
10737,-0.2518588879509791,-2.370024214950816,-1.4384652143645031,2.1281448142768613,-0.3510278536401612,-4.350458308494192,2
10748,-0.3158026146207711,-2.219438819249508,-1.5121222114054371,2.084659977934126,-0.3235094110939221,-4.31822658145419,2
10760,-0.3421566623386571,-2.1304953590572944,-1.5646680247340643,2.183432677772309,-0.3337014188117213,-4.365626167251454,2
10771,-0.3530081422928475,-2.073818261390898,-1.6273098373253394,2.3418417237224207,-0.3826231092926804,-4.526784740323883,2
10782,-0.4964013382000926,-2.0928507046158726,-1.7771464214296375,2.4704325915276,-0.4458136205977189,-4.763782669310211,2
10794,-0.5936773317040113,-2.0572733205389877,-1.8675536417864265,2.528826516942801,-0.4906585146709985,-4.953380515478624,2
10805,-0.7126531103123452,-2.068026515402386,-1.9680568614058624,2.5418719647922408,-0.5110425468051979,-5.004572089263048,2
10816,-0.8533350236330254,-2.138354375410342,-2.065806284912884,2.5126750071736086,-0.5120617626057186,-4.883229157077357,2
10828,-0.9730886292129148,-2.105261104738711,-2.1637850347855814,2.3449477754642376,-0.4753704613477976,-4.29168282086303,2
10839,-1.030057311570432,-2.0059745147881958,-2.2241317039957926,2.3219629416851117,-0.4692552500376777,-4.007285337143228,2
10850,-0.9944042630375006,-1.8413249026724203,-2.257861476993177,2.3952659459948427,-0.4947353277772788,-3.836646840698587,2
10862,-0.8072178212296991,-1.445835748129798,-2.42490881686899,2.5592658952581604,-0.5915594929386762,-3.844230754545324,2
10873,-0.8304700854732597,-1.335379120275166,-2.513479546576065,2.74935690306734,-0.7627853094304279,-4.041413011581123,2
10884,-0.9409215154341386,-1.2563619468005365,-2.580021787108133,2.8829174740152985,-0.9574528388551424,-4.361834210328087,2
10896,-1.0750125357223732,-1.229473876190324,-2.653449457783392,2.9220538277415544,-1.111352370805862,-4.693631279845155,2
10907,-1.199029903027973,-1.1508735457564123,-2.737200574362664,2.8617962712812632,-1.210214934171099,-4.932524721336308,2
10918,-1.2811906548519911,-1.049102842400643,-2.8016788776036523,2.600887253224852,-1.3162117743595692,-4.911668896130201,2
10930,-1.335835380706738,-1.0582056099402235,-2.845735855953669,2.4704325915276,-1.339653420498129,-4.642439737124521,2
10941,-1.4141196968888403,-1.0735101885734122,-2.910900258567375,2.334387179186188,-1.3539222413222085,-4.272722974118608,2
10953,-1.4408610706905214,-0.9146523224461494,-2.9921287851242173,2.197720546318476,-1.3641142657386085,-3.84233477608364,2
10964,-1.3307969668134378,-0.7926155915823044,-3.0249412526589,2.049250896475987,-1.3651334648405282,-3.3133552010204474,2
10975,-1.199029903027973,-0.6896045260078133,-3.057984926283567,1.904508518901615,-1.3865366960766474,-2.708536518553681,2
10987,-1.0847020374251788,-0.6900179800807204,-3.0953858008560684,1.788341878419576,-1.4680728413120454,-2.130261845188399,2
10998,-0.9618498231749294,-0.6337577254550417,-3.1490782460130733,1.6684479758473565,-1.6270683019779608,-1.654369915562687,2
11009,-0.9110783581581322,-0.3958826858531494,-3.1958890204755046,1.4044330587181744,-2.163168532461873,-1.385140290600148,2
11021,-1.0742378835547832,-0.1269850349119726,-3.2603673237164927,1.2901300594591616,-2.4108345487752256,-1.6714337527816348,2
11032,-1.3052175712631413,0.0397352365361488,-3.3523798286330098,1.1957057709919034,-2.5270235469689024,-2.029774738208815,2
11043,-1.3652880370949838,-0.2026877978677228,-3.3636224597240347,1.071463385803204,-2.5015435026265034,-2.1549096273178736,2
11055,-1.1273333050743506,-0.3905043939375448,-3.2961629137292654,0.8385089046686985,-2.3741432809145064,-1.9008478611125976,2
11066,-0.7901659491308234,-0.3156285391276089,-3.2674802005010504,0.5055393437110286,-2.24266626279483,-1.3984121708957271,2
11077,-0.5506587379710447,-0.096782553782881,-3.278722831592076,0.1843728099060715,-2.22533982796639,-0.9452722623843408,2
11089,-0.5262444954760991,0.0835850910389894,-3.3179601968142896,-0.0485816610504975,-2.3496824356740267,-0.7727377874780166,2
11100,-0.6463822523358178,0.2660233951932066,-3.353985113192738,-0.3461421812617743,-2.699268378877965,-1.381348302612989,2
11111,-0.7676851622508871,0.4699748670098424,-3.3298926867266503,-0.364778542602357,-2.7726508979008027,-1.8970559041892296,2
11123,-0.7657485318319123,0.4629427588026089,-3.228472161644512,-0.2628997604885476,-2.730863634530484,-2.2326449306296663,2
