ax,ay,az,gx,gy,gz,label
0.6404025276754798,0.2459097082368691,1.3761249010243746,-0.0650697311477112,0.017804670175625,-0.1862725693938245,5
0.7170289633237167,0.2808744421016585,1.3284957792158778,-0.0340504112408277,0.0669586433738626,-0.157471418291333,5
0.7276716999588484,0.294778928822537,1.3121519731953817,-0.0780682998879814,0.0792471422660524,-0.1493584101176958,5
0.7611470220113817,0.3050016830036623,1.3676880878390232,-0.0683193757528767,0.0874394733694775,-0.1448962635976012,5
0.7849481376766336,0.3068425492735389,1.3163703797880573,-0.0237106395519319,0.1010933481022759,-0.126236359419813,5
0.7777879885284523,0.2941641900408766,1.3049461284867323,-0.0225289492845455,0.0948125601772993,-0.1278589623837748,5
0.7603734659378124,0.2827136333339829,1.3237518714606331,-0.0281419695842878,0.0980894926186693,-0.1388115141135449,5
0.7555355701662274,0.2982546317433685,1.3232234908396394,-0.0467535634644963,0.1109241409522817,-0.1627448696164942,5
0.7530199277712388,0.3133852459524632,1.3228721969117851,-0.0435039188593308,0.1081933669005429,-0.1850556221554819,5
0.7644362204799396,0.359596181942777,1.327090603504461,-0.0180976192521896,0.1019125789755662,-0.1980364259286612,5
0.7787565187763024,0.3587787636172996,1.3279688383240966,0.0516220000392946,0.0773355990876039,-0.2134511308246974,5
0.7460547527973382,0.3162478851291867,1.3488837845943351,0.1266592085933318,0.056854769091989,-0.2296771338796287,5
0.6564633271373734,0.2497941203204394,1.376651841916156,0.1801306000187926,0.0983625695764328,-0.2552330857003683,5
0.6239549501768017,0.2324139306787294,1.362240152498858,0.1940154425098474,0.1259434138962103,-0.2661856374301384,5
0.6409842798865453,0.2041962480742338,1.3464232873701432,0.2008101482367802,0.1516127195116438,-0.2856568530591646,5
0.628986234966779,0.199494417665186,1.338162121148719,0.2061277471797248,0.1395972975772174,-0.313241050277142,5
0.5957043019326379,0.124248380744899,1.3488837845943351,0.2102636558552832,0.1232126353703672,-0.3290614042526258,5
0.572871716515236,0.0434814200525345,1.4188315886552747,0.198742193899001,0.0710548111626273,-0.3465043545458997,5
0.5517796322633651,0.0140376099598226,1.4562659879099364,0.1854481989617372,0.0322777847299224,-0.348532606589309,5
0.516949001926197,-0.0389203772907848,1.5021357606207373,0.1954925541340314,0.0284546983730254,-0.3440704534230429,5
0.5328164123696981,-0.0246071814071677,1.5165474500380354,0.242464666029553,0.0554893843031718,-0.3201370979200935,5
0.5649380112934854,-0.0254262747701973,1.5149651876334789,0.3104117717008394,0.1035510451962513,-0.2909303043843259,5
0.6440800893367108,-0.0683641873834968,1.500904792144035,0.3334546956134037,0.1213010921919187,-0.2726760426398138,5
0.6854891166109949,-0.1329787609599196,1.479815638639082,0.3204561220329376,0.1412357637979024,-0.228054530915667,5
0.6897452601715146,-0.1415650034525378,1.475597232046406,0.2593037269287799,0.1630819830564389,-0.185866920314377,5
0.7185776606267437,-0.1008749912343016,1.461889570214029,0.2273981381113077,0.1887512663013507,-0.1680183209416555,5
0.7512794266057079,-0.1096689383833934,1.449762731056996,0.1638824060341404,0.2450052627719596,-0.1453019126770487,5
0.854414424176689,-0.1086454904389943,1.4362307161885464,0.1434982791729504,0.2586591464529666,-0.1388115141135449,5
0.9739985844022372,-0.0284932685282902,1.4063534555703874,0.1618144516963613,0.2684899437770768,-0.1274533066581557,5
1.0043780970046048,-0.0634580023930795,1.385438509300149,0.2276935643083012,0.2824169044158472,-0.1347550100267262,5
1.021986008613637,-0.1311378946900431,1.3473015221897786,0.2613716812665591,0.2908823258993487,-0.1489527610382482,5
1.0428847038471156,-0.1513807235084766,1.3269149565405338,0.3369997615753668,0.3252901120596299,-0.1765369715485687,5
1.090485350021731,-0.2822430322747251,1.2084597958514618,0.3757000222384005,0.3605170933003666,-0.1761313224691211,5
1.0980322772066968,-0.4409126394451784,1.0581952579410328,0.4055376567180935,0.4405288477338562,-0.1530092651250668,5
1.1061593714468398,-0.4838522270960301,1.0139077476347886,0.3863352201242898,0.5006059350354664,-0.1306985125860792,5
1.140601638591335,-0.5149325488772493,0.9256811414917294,0.3798359309139588,0.5371983368578551,-0.0885109019847892,5
1.1671117856699678,-0.5321083839375899,0.8283165740368231,0.3931299258512226,0.5530368451491784,-0.0605210357488497,5
1.1957492119509163,-0.4938723017333382,0.7126746442290097,0.4282851592738603,0.5765215574730259,-0.0033243826233141,5
1.1930401805375352,-0.4824217450264444,0.6457142782840434,0.474371007098989,0.5890831288488748,0.0583344502531736,5
1.1442776150966776,-0.5308805814118214,0.5008976757137799,0.4915054893550135,0.5942716044686932,0.0859186541173225,5
1.1189293872842871,-0.4515457778265947,0.3905280342822049,0.5047994842922773,0.6125678053798876,0.1463604998784385,5
1.103450340033459,-0.3771171592317853,0.266802024946107,0.5098216618784244,0.6491602116763806,0.220188818430696,5
1.1057710082541667,-0.3231373990743309,0.1198762190795057,0.4977093572085469,0.6964026461702741,0.2672442578623858,5
1.1146732437237674,-0.2730420510004467,0.0430738642377712,0.4802794487555289,0.7204334139793532,0.2526408511252447,5
1.1620805008799904,-0.0894261095649599,-0.1112334333014062,0.4882558495900439,0.7228911110733286,0.2388487226084842,5
1.1920732354455736,0.0332586658714092,-0.2498980729465834,0.5505899156008043,0.7163373177762579,0.2356035233267322,5
1.1885906479586232,0.0557493950849058,-0.3516566939580925,0.6401028480810588,0.6906680166349286,0.2623764556166721,5
1.1924600134823582,0.0923506406382023,-0.3955929103364825,0.705391137340187,0.6447909714039568,0.2984793167339057,5
1.241222578923216,0.2540889166043007,-0.4613237475339591,0.716321756582874,0.6161178147790211,0.3220070231574076,5
1.325200967582138,0.3221775180640029,-0.4722196182142898,0.7183897109206532,0.5382906491630132,0.3418838812197099,5
1.3747370890965651,0.3397620622870823,-0.4857516330827398,0.686484122103181,0.4361596074614323,0.3029414699001719,5
1.4945146383405057,0.3896530557795971,-0.5405851598706731,0.5946078429695252,0.3321170539001334,0.2262735679147523,5
1.6003586673248678,0.3802477199239493,-0.5931338363983415,0.5440906263904733,0.2859669272372938,0.1938215618048898,5
1.6928525134166057,0.3352629114218516,-0.6024488844033283,0.4303531136116394,0.1925743526582476,0.1455491950733719,5
1.7203296055872002,0.3503952006684986,-0.5994614462873549,0.3263645685296734,0.0754240559091555,0.1329740470258116,5
1.7211031616607697,0.3966061366588124,-0.5957699805864607,0.2687572345472829,-0.0272531397079522,0.0903807806989025,5
1.7195544643577425,0.5098839012019816,-0.6328530859132683,0.2622579501771478,-0.0643916999199721,0.0360236910680144,5
1.8106945873207343,0.4542659543184678,-0.5897951043545139,0.336113497504974,-0.1373034310810903,-0.1096047072854342,5
1.8288826659849435,0.3628675302822393,-0.5680019232646398,0.4731893216717986,-0.254999890693918,-0.1883008214372338,5
1.7882471947842284,0.2868040750364748,-0.5950673927307522,0.4832336720038968,-0.3830732970722784,-0.1850556221554819,5
1.6429296138653942,0.3336280747708967,-0.6709900730236386,0.4616678548753205,-0.4166618478851648,-0.1753200176640545,5
1.542308673533513,0.4395440492721118,-0.8087779175783928,0.4646220781236884,-0.3754271198843802,-0.1870838741988912,5
1.526634652108404,0.4984333444950878,-0.8999905221082126,0.5207522811211114,-0.2779384133094039,-0.2199415293882013,5
1.553724966242214,0.4630582264300075,-1.0599214019514829,0.5946078429695252,-0.2803961148774836,-0.2548274366209208,5
1.6450568930677096,0.3354689410407733,-1.0595701080236284,0.6279905434111813,-0.3418386048643284,-0.2791664412033177,5
1.6793073563497007,0.2917102600268919,-0.9555266367518545,0.6516243148775368,-0.5327198502255162,-0.3116184473131803,5
1.6769851029731049,0.3342411385150048,-0.9108863927885434,0.636853208316089,-0.7249664893237296,-0.3250049001658072,5
1.6255135061188657,0.460195587253284,-0.8217829915550613,0.5996300205556723,-0.8702438022045437,-0.3460987054664522,5
1.5873936773131394,0.5070212620252582,-0.7437511079658371,0.5969712235042979,-0.9193977798768856,-0.3732772668973251,5
1.5659164001803725,0.4213464413049244,-0.68838920055691,0.6359669394055004,-0.99449413564832,-0.4475112212366871,5
1.5413417284415514,0.3863817074401349,-0.6386537549105005,0.6746672387901012,-1.072594346903361,-0.4714445833858079,5
1.4416893183575203,0.4581520414395902,-0.5521850581359249,0.6900291880651441,-1.1100059840731444,-0.4734728287830457,5
1.345712884778832,0.5781768572430532,-0.4727465591060713,0.7564990901485243,-1.1730869894958218,-0.5241790966374205,5
1.286500971721235,0.5538452617596802,-0.4263498455034892,0.8838260192214197,-1.2394448602483044,-0.6633171097197083,5
1.1626606679351674,0.3886312828727502,-0.3198458770075231,0.9603403490800324,-1.2907834625309629,-0.7493148873630493,5
1.028564405550753,0.1939734938931084,-0.164484697684783,1.0891443897771118,-1.435241540064382,-0.8973771801931835,5
0.9606468163537244,0.1324275891123305,-0.105257117340247,1.2037681666263385,-1.6242111438168256,-0.9914880058871908,5
0.7963644303853344,-0.1127359321414863,0.0945686589818769,1.2935765640251535,-1.7165113926684008,-1.009742260985531,5
0.6247300914062593,-0.7208365399824153,0.470844768131694,1.437447132640478,-1.8120885739613457,-0.9849976073236868,5
0.5823525338841252,-1.028361709304935,0.6293704722635473,1.295349097006135,-1.7615692070260824,-0.8929150270269173,5
0.5666800976149048,-1.1297802079784718,0.8154871470240815,1.096825364414633,-1.6834689957710414,-0.8215206095975165,5
0.510370604989081,-1.1132191116997914,1.0523960286730132,0.7104133149263341,-1.4062953109557867,-0.6661566599220127,5
0.4606410944562617,-1.1792624923082478,1.1269135332544828,0.5606342659329026,-1.0925290140352404,-0.6004413163125348,5
0.3921417530481678,-1.2800679272376765,1.1293740304786748,0.5526578699385836,-0.969917146812149,-0.6109882455475434,5
0.4099446388314807,-1.303990813558311,1.0411488640648283,0.5207522811211114,-0.7716627699020963,-0.6410063571807206,5
0.4374217310020752,-1.219339440782376,0.9777028771276166,0.4528051948106086,-0.6171008807242642,-0.5996300181536397,5
0.413427226318431,-0.9079281843387336,0.9813943428285108,0.5529532912953811,-0.5084159428212129,-0.5258016996013822,5
0.3157087064183232,-1.3148283065210966,1.2764754833092031,0.6941650967407025,-0.4117464492231097,-0.5075474445030417,5
0.3429924095705254,-1.5965913982906577,1.2427311100262233,0.5671335503030377,-0.1829073904060901,-0.389908932324047,5
0.3952375624983334,-1.4342400585804511,0.9453651192852658,0.0847092694437613,-0.161334274949943,-0.3237879529274646,5
0.4883115756452485,-1.0539211073140766,0.8397408253381478,-0.0579795992237849,-0.1760804664620039,-0.3420422080258051,5
0.5419120368576912,-1.0048475321470396,0.7302494187262084,-0.0479352488916867,-0.1512304006680695,-0.3988332320104077,5
0.5368807520677139,-1.1680162901827236,0.7160133762728373,0.0708244269527064,-0.1140918315078409,-0.4231722432389763,5
0.523915762055986,-1.454074178236146,0.7835006831095852,0.022966050986792,-0.0982533276906219,-0.389908932324047,5
0.528753657827571,-1.430968710240989,0.8211107293281742,-0.2768873715529507,-0.0504647392812016,-0.2921472516226686,5
0.5436525380232222,-1.4354661860686675,0.8977374372059814,-0.5238602357004362,0.0145277377342549,-0.2256206297928101,5
0.5802236695259212,-1.5000807596450905,1.145893483463098,-0.5941707025457115,0.0860740841065559,-0.1607166175730849,5
0.6229880050848401,-1.2782270609678,1.1668084297333368,-0.7817637820131552,0.295251570645877,0.0729378503441432,5
0.6320820444169446,-1.1604518205969525,1.1761234777383236,-0.8529604354856891,0.4776674079458761,0.2854985129607264,5
0.6508518752922192,-1.0326565055887964,1.122695126661807,-0.8234182223627936,0.5497599127078083,0.3483742797832138,5
0.6690415391123168,-0.8623303120925279,1.0905330157833837,-0.7457222796799289,0.6647256385358361,0.3869109955001036,5
0.6883915370427682,-0.8087592610978123,1.056965729193543,-0.6591636043294136,0.7805104968068591,0.4104387019236055,5
0.7789499077946946,-0.7590726221866669,0.9451894723213388,-0.6449833066001898,0.8318490946154129,0.4611449631318086,5
0.9529065001503664,-0.7046824778289216,0.8610056258070281,-0.6928417212876714,0.8722645917429073,0.622188059735122,5
1.061846338584894,-0.6721716739781168,0.8279652801089689,-0.7799912490321737,0.8075451872111097,0.7572696019614489,5
1.2683128930570258,-0.5593026185976864,0.7538005091845661,-0.8328717299812967,0.749379643087948,0.8031080609239385,5
1.4157593383340643,-0.3047354365257739,0.7740114278698838,-0.9070226841453328,0.6161178147790211,0.8647668805080833,5
1.4796141729889656,-0.2313285908378113,0.7847316515862873,-0.8875248213545356,0.5186290589888973,0.9248029974356932,5
1.620677195503169,-0.0644797752999264,0.7288442430147914,-0.8440977705807813,0.4842212728286161,0.9905183144604852,5
1.6682778416777848,0.2896667142131982,0.6133765204416927,-0.7921035537020511,0.4874982052699862,1.0087725695588257,5
1.6346091306068589,0.4460884209885884,0.5307749363319385,-0.5782179057168775,0.5486676004026502,1.0460923845605736,5
1.5604983373536103,0.6519907370562024,0.3024785148322853,-0.3070204273894413,0.5838946532290562,1.057450585369791,5
1.580621891357631,0.8675044185983857,0.0581881415107776,-0.1847156904232809,0.5535829990647053,1.031083328743985,5
1.6224176966687005,0.9816012765045846,-0.0354849602432343,0.0690519036521167,0.3960171917658059,0.8761250879634724,5
1.6613110815479954,1.089358117275676,-0.1539401209323064,0.4265126262928786,0.1144741503514152,0.569047897404062,5
1.5846846458997583,0.8824323532636632,-0.1245898012059291,0.5665427075894425,-0.0338070045906922,0.4213912536533755,5
1.4999327011672672,0.6055754464845192,0.0727754778920027,0.6693496398471566,-0.22004595061811,0.3151109755144561,5
1.4660690159220608,0.5064065232435978,0.1594198216305054,0.5387730274475286,-0.2380690790456452,0.4505980604814861,5
1.473809332125419,0.5636593067780666,0.4233927330163369,0.413218631355615,-0.2093959224207095,0.5268602801566005,5
1.5742368834389078,0.7366437848696894,0.6107403762535736,0.2590083055719823,-0.1373034310810903,0.524020729954296,5
1.5993917222329062,0.7716085187344788,0.597735302276905,0.2805741227005586,-0.1190072256957916,0.4116556491619481,5
1.5906844609375863,0.9133066454259609,0.5142554833475153,0.3387722945563484,-0.1389418973017753,0.3585154868308881,5
1.571141073988742,0.9589045176721664,0.4845538696932837,0.5724511492459824,-0.2036612928853641,0.253857805009759,5
1.581008669394416,0.8533972523336901,0.3715480840735895,0.6596007108718559,-0.2555460490835492,0.2181605663872867,5
1.5781062489626427,0.5489374017317107,0.4455372080340652,0.6457158683808011,-0.4338657409653054,0.2047741135346598,5
1.5543051332973907,0.5151987953551376,0.5711982134317863,0.5136621491971851,-0.5947085164984094,0.1759729557859967,5
1.4055033797357177,0.7393003944274912,0.7395644667311951,0.4799840273987313,-0.6239278225647676,0.1439265987555816,5
1.3791882068313654,0.6812301925675449,0.7295468308704999,0.6120377514225432,-0.5988046798130698,0.0696926510623912,5
1.36989919332498,0.4025357695936287,0.7467703114398443,0.6693496398471566,-0.5633045500289002,0.0774000035104093,5
1.3520978926975555,0.2704456583016116,0.821639109949168,0.526069880064056,-0.4966736023186543,0.1723221074247972,5
1.3668033838748144,0.2878258479433217,0.8624122412476574,0.1349310356248402,-0.5239813652065641,0.2323583240449802,5
1.3304256413905076,0.5787899209871613,0.969794444563259,-0.0039173554043371,-0.5796892435544807,0.2205944675101435,5
1.2665708067356063,0.6174363873917039,1.0371061044360796,-0.1011112286407417,-0.697385712115517,0.0859186541173225,5
1.1860750055636349,0.7104696480788874,1.1021329140486351,-0.221348011269123,-0.6681664060491589,-0.0248238370034067,5
1.1235738940374798,0.7851026212550662,1.1543302966484494,-0.2151441676165691,-0.5728622659211425,-0.0369933426176909,5
1.125896147414076,0.7264193556510118,1.1165446034659334,-0.1164731827559805,-0.3740617350955629,-0.0130599871147415,5
1.120864862624099,0.7151731535254875,1.0571413761574702,-0.1232678884829133,-0.3382885954651949,-0.0114373841507798,5
1.064943733190948,0.7444126090368299,1.1871949953825816,-0.1811706147809259,-0.3497578545358857,-0.0386159455816527,5
1.0088276295835168,0.6879789188653909,1.2513435701755016,-0.2331648994223987,-0.3628655485085313,-0.1205572523690327,5
0.8900186105874266,0.5168353070436448,1.4060007219133208,-0.3076112701030366,-0.3838925279455687,-0.1692352681799981,5
0.8466741079733308,0.5605923130199738,1.3501133133418248,-0.483091986818252,-0.4406926828058088,-0.2231867286699533,5
0.8844071587422723,0.6552637604332168,1.2253319824929518,-0.5767407940926935,-0.4770120121445384,-0.256044390505435,5
1.0041847079862125,0.7938948933666059,0.9425533281332196,-0.6027379412536258,-0.4909389727833089,-0.2625347890689389,5
1.0732642164494834,0.8574860189986298,0.8550307495750813,-0.6582773354188249,-0.5553852958832386,-0.2450918321294934,5
1.0842937311213996,0.8949046828774038,0.8388625905185122,-0.7105670510974871,-0.6539663639785206,-0.2527991845775115,5
1.0190835881818636,0.976080352732507,0.8124997089081083,-0.7220885130537693,-0.7028472646930991,-0.2617234909100438,5
0.9045307127462932,1.0104320228531884,0.840267766229929,-0.7324282847426651,-0.7814935627521021,-0.260100887946082,5
0.6220210599928785,1.1517214403819316,1.016895185750762,-0.675707239031647,-0.8238205985839405,-0.2300827829590763,5
0.3348653153303825,1.17830261129792,1.1608321137721775,-0.653846005386469,-0.8273706079830739,-0.2045268311383367,5
0.259400798948388,1.2302388256416807,1.144312660787754,-0.7138166957026525,-0.8210898245322017,-0.1700465663388932,5
0.2568851565533994,1.3776639057241618,0.9668070064472858,-0.7590162746171926,-0.8142628826916982,-0.1976307768492137,5
0.3249977199247086,1.4643604993513426,0.8290206016217442,-0.7613796551519653,-0.804432085367588,-0.2171019791858969,5
0.320353213171516,1.5332665191365225,0.7859611803337772,-0.7427680612717569,-0.7932359032546606,-0.2726760426398138,5
0.2218611371978389,1.6635157641586626,0.7188266071540962,-0.7371550409720146,-0.8022474652313761,-0.3091845594826666,5
0.0552580830087411,1.8293428067897008,0.7397401136951223,-0.7433589039853521,-0.8311936988140753,-0.39680498661317,5
-0.0118875352706065,1.8759624519427531,0.7817442134703141,-0.7767416044270082,-0.8164475028279101,-0.5116039419436886,5
-0.0712912521907074,1.980652298955752,0.8040643354519694,-0.8095333847119347,-0.7793089426158902,-0.587866161618803,5
-0.0741936726224807,2.043221651680929,0.7773501599137113,-0.8494153695237259,-0.6763587326784797,-0.7614843929773335,5
-0.0836760751472583,2.084933436806012,0.7476485462594797,-0.8508924811479099,-0.5712237997004577,-0.8507274164256272,5
-0.1409525128650437,2.2153870364095223,0.7474728992955526,-0.8234182223627936,-0.5258929128591169,-0.8576234707147503,5
-0.1409525128650437,2.334390079306138,0.7462433705480628,-0.7705377414136707,-0.4325003517023838,-0.8628969220399114,5
-0.1320502773954429,2.3924602811660844,0.7367526755791489,-0.7566528989226158,-0.3333731968031398,-0.8491048134616654,5
-0.1138621987312338,2.450121773863292,0.7297224778344269,-0.7460177058769224,-0.281215345750774,-0.82070930479245,5
-0.0598749594820064,2.466478515560603,0.6754158919382749,-0.6600498683998064,-0.1730766109783973,-0.7456640323556782,5
-0.0132412583993527,2.4556426976353696,0.619352836402852,-0.567582712671184,-0.0805032851690588,-0.6665623156476318,5
0.0602893677987184,2.452780058458646,0.5174185684274157,-0.5622651137282393,-0.0564724502484147,-0.6324876999276359,5
0.0610629238722877,2.421699736677427,0.5065226977470849,-0.558129205052681,-0.0346262399380869,-0.6255916522846845,5
0.046162458520748,2.430696363370336,0.5016017032987008,-0.5315412151781534,-0.0114146403648375,-0.6665623156476318,5
0.156070827203126,2.4863126352162976,0.4550279030029792,-0.5176563726870986,0.0063354066308298,-0.6803544175797063,5
0.2355996832831361,2.469749863900065,0.4130238032277874,-0.4792514994994912,0.0500278272514855,-0.6730527142111357,5
0.3695025566491583,2.4268119512867656,0.3197019954016296,-0.4887050071179943,0.0945394832195358,-0.6345159519710453,5
0.4211675425217893,2.4231302187470125,0.2348155610316105,-0.5037715350362396,0.1065549006798579,-0.6142334448292953,5
0.3927219201033448,2.428446787937721,0.2411417311914115,-0.5229739716300432,0.1092856747315967,-0.5761023117301379,5
0.2892001444955789,2.462594103477033,0.2653954095054777,-0.4978630933796997,0.1174780058350218,-0.5099813389797269,5
0.2657858068671116,2.532727925787981,0.2281366572147428,-0.4700934132377858,0.1221203275393134,-0.4734728287830457,5
0.2741062901256469,2.5376357858159504,0.2232156627663588,-0.3965333453491081,0.1398703745349808,-0.4252004952823855,5
0.2832019146136399,2.586300651820249,0.1993147181093593,-0.3545834061995376,0.1611704398779904,-0.4183044409932626,5
0.2957785414326948,2.6476422020196573,0.1887701413568827,-0.2833866559230859,0.2168782645366551,-0.4353417488532605,5
0.2712038696938736,2.7300439993629766,0.2110888236093257,-0.1814660458181153,0.2794130489322406,-0.4239835413978713,5
0.2487580623132564,2.8819665552731366,0.2240953373152068,-0.1022929140679322,0.3140939254725982,-0.397616284772065,5
0.2888133664587942,2.9167269345565563,0.1849030286920613,0.0699381725627054,0.3812709957796407,-0.3355518028161297,5
0.317064014702958,2.907117244119539,0.160298056450141,0.1934245949560563,0.4454442463959113,-0.2848455549002696,5
0.3813056273946438,2.782797632032215,0.2204038716143125,0.2338974273216387,0.4842212728286161,-0.3059393602009146,5
0.4672194913933776,2.597340824326852,0.3965043502433641,0.2731885694198347,0.6352332510376102,-0.4345304440481938,5
0.5328164123696981,2.4977631919231915,0.4529186997066414,0.198742193899001,0.9129531613540606,-0.5959791697924401,5
0.5763543040021863,2.427220660449505,0.3279617218938413,0.1429074364593552,1.0811689968503604,-0.6884674191071719,5
0.5146283337054891,2.4292658813007506,0.1218097754119164,0.0655068425303495,1.3269389567977394,-0.796370300210053,5
0.3476369163237182,2.36853739484545,-0.2270510100731466,0.0773237161630375,1.3149235393374177,-0.7704086926636943,5
0.522367064752959,2.194531143846981,-0.1984032782024777,0.0129217054948897,0.8987531237575267,-0.6272142486024747,5
0.6618813899641354,2.270594599092745,0.0956225407654395,-0.0009631369961651,0.4192287913390553,-0.563527157036406,5
0.7052258925782312,2.4331502933843208,0.3439556737156958,0.1092293049805097,0.3845479282210107,-0.5773192589684806,5
0.6587855805139697,2.363220825654742,0.2288406847996638,0.2985948883877595,0.5879908165437167,-0.5858379162215652,5
0.6545278517975617,2.337252718482861,0.1986106905244384,0.2720068791524484,0.808910571999927,-0.5444616037791703,5
0.6531741286688154,2.330914376385307,0.2472936941164978,0.1659503603719196,0.8771799859308579,-0.5071417887774226,5
0.68065122083941,2.3918472174219763,0.2559047145365637,-0.1188365584505573,0.913226238311824,-0.4207383421161194,5
0.7342500968959642,2.577302350089788,0.2124954390499551,-0.1906241320798208,0.8837338508135981,-0.4032953851766739,5
0.7934620099535612,2.6431430511544267,0.1202275130073599,-0.1380389853639692,0.7936182265723393,-0.4365586960916031,5
0.7901728114850033,2.602861748098929,0.0942173650540226,-0.0402542742541652,0.7411873164586272,-0.5387825033745616,5
0.8195837938395208,2.339502293915477,0.0021250859753546,-0.0437993402161284,0.7291718989983051,-0.5683949592821197,5
0.8993060389379236,2.2382881498233096,-0.1054327643041741,-0.1519238230148281,0.6625410183996242,-0.5773192589684806,5
0.9012415142777352,2.2712076628368534,-0.1126386090128231,-0.3401077209948876,0.5453906679612801,-0.5614989049929968,5
0.8029428273224505,2.3305056672225675,-0.1908461395659745,-0.4207579208074916,0.4976020795518598,-0.541622053576866,5
0.761340411029774,2.3947098565987,-0.392605472220509,-0.5005218904310741,0.4334288289355892,-0.524584745716868,5
0.8029428273224505,2.324780388869121,-0.484346457371323,-0.4316885400501786,0.3370324525621884,-0.5777249146940996,5
0.8882765242660072,2.02543275287648,-0.4769649656987468,-0.3758537971311204,0.278593813584846,-0.5606876068341017,5
0.8718289467673289,1.871464976115075,-0.4296885775473168,-0.4966814031123134,0.1600781275728323,-0.3822015665836858,5
0.8418377973576344,1.879029445700846,-0.4235366146222304,-0.7471993913041128,0.0762432867824458,-0.1866782251194436,5
0.8878897462292226,1.7688186749157695,-0.3859265684036415,-0.8473474151859467,0.067231720331626,-0.1416510643158492,5
0.9287186064483296,1.6708775542006171,-0.3945390285529198,-1.0151471766244244,0.0888048536841904,-0.1745087195051594,5
1.0483027666738776,2.0916804880663062,-0.6149270174882157,-1.117363227446976,0.0926279400410873,-0.2434692424578747,5
1.0008939243617665,2.0524226329552078,-0.9470912632957156,-1.126225887511688,-0.0176954238157098,-0.4215496402750144,5
0.94187698547845,1.8641031860731203,-1.0778474703765355,-0.9971264254578112,-0.2115805425569214,-0.4665767811400942,5
1.063975202943098,1.7283346923164549,-1.061328017392112,-0.9628574609457622,-0.2956884782014887,-0.4446716710343827,5
1.2373516282435926,1.5336769033368132,-1.126002093347601,-0.9838324305205476,-0.4876620403419389,-0.3631360133264501,5
1.2605725768536675,1.4490238555233264,-1.1073734370668398,-1.0476436081554918,-0.6930164718430932,-0.2045268311383367,5
1.2996593507513552,1.5355160945691375,-1.0101845165758605,-1.0878210143240807,-0.7394396038780272,-0.126236359419813,5
1.3575159555243177,1.6066733648244849,-0.936371039579312,-1.0706865320680563,-0.7047588078715475,-0.0365876935382433,5
1.432980471906312,1.6205761765078113,-0.7977049602049223,-0.9968310041010136,-0.6449548020018051,-0.019956034757693,5
1.4712936897304305,1.6465442836796913,-0.7613258824630355,-0.8780713137360326,-0.4903928143936777,-7.918334156222476e-05,5
1.4695531885648994,1.699299591386482,-0.7548226256100949,-0.7912172896316583,-0.3183539238592113,-0.0138712852736366,5
1.4277557980979425,1.747758427771859,-0.8302183650112,-0.7649247211139285,-0.2257805846275597,-0.0142769343530842,5
1.549855600718479,1.7027752943073136,-0.9005174629999941,-0.7796958228351801,-0.0947033182914884,-0.0138712852736366,5
1.6355760756988205,1.6081038468940705,-0.895772115515537,-0.8408481308158117,-0.0764071218543984,0.023042874002492,5
1.7178139631922118,1.40036066455658,-0.923540172837358,-0.8907744659597012,-0.0837802176104288,0.0668531008600868,5
1.694786403600529,1.3453574564547266,-0.9862835719188612,-1.0594604914685717,-0.0968879384277004,0.1808407580317104,5
1.594747215479713,1.464769208514081,-1.0319776976657349,-1.1708346285528286,-0.0586570703846267,0.2846872148018314,5
1.597649635911487,1.5594389808897722,-0.9400610655509938,-1.1445420600350988,-0.0059530877872556,0.2976680185750107,5
1.620288832310496,1.5179315503460582,-0.9866348658467152,-1.0116021106624613,0.1152933856988099,0.2575086533709584,5
1.6814362207079048,1.389318817012425,-1.1252995054918926,-0.9661071055509276,0.1423280805771649,0.2246509715969622,5
1.7203296055872002,1.199160178898014,-1.2528926274928118,-0.932428983752474,0.1213010921919187,0.160152601810513,5
1.712589289383842,1.1204367640193431,-1.3599235368805591,-0.9407008011035908,-0.0051338524398609,0.1520396002830473,5
1.663633334924592,1.0721822822153355,-1.4033328123671678,-0.923566318847566,-0.1012571787001242,0.1666430070201884,5
1.5732683531910578,1.0507116508711336,-1.2764437179511694,-0.8204640039546217,-0.269199928290452,0.1678599542585311,5
1.5670767342907264,1.0253582824809135,-1.256408446229779,-0.7238610460347508,-0.3705117256964295,0.1183706402886705,5
1.645638645278775,0.8826367078450326,-1.3567604518006586,-0.6792523049936101,-0.4401465244161777,0.0802395537127137,5
1.6973020459955177,0.7435951907113525,-1.4502579065907435,-0.642029083351822,-0.7047588078715475,-0.0061639328256185,5
1.657635105042653,0.7313272156789812,-1.3472697568317449,-0.744836015609536,-1.060578929443039,-0.083237450659628,5
1.4875478782107163,0.8141377221850393,-1.020377799400483,-0.8225319582924009,-1.1902908825759624,-0.1144725028849763,5
1.4670375461699108,0.9202597263051762,-0.6954193983016319,-0.8160326690820697,-1.2670257045680815,-0.1972251277697661,5
1.5366972216883583,0.8366301264360881,-0.6022732374394012,-0.5569475147852947,-1.1725408355802949,-0.305533711121467,5
1.760965076787915,0.5591601559128361,-0.4152768881300188,-0.4364152914393321,-1.1217483245757032,-0.3083732613237714,5
1.8356560370963404,0.6207077357311661,-0.2261713355242985,-0.2913630519174049,-1.0564827616542745,-0.1870838741988912,5
1.8045013832645147,0.6147781027963499,-0.1938350174111603,-0.2674338639344477,-0.99449413564832,-0.0706622959658962,5
1.7234254150373658,0.4450649730441893,-0.0407572486194726,-0.3250411737158586,-0.9445209226285834,-0.0503797821779747,5
1.7164586549075769,0.4289125859282478,0.0040586423077653,-0.5158838397061171,-0.7825858750572602,-0.0649831889151158,5
1.7669633066698538,0.5021134019972888,0.0917568678298306,-0.581467550322043,-0.5805084744277712,-0.0601153866694021,5
1.850748306310384,0.6037362552521948,0.1225123632676248,-0.558129205052681,-0.4903928143936777,-0.019956034757693,5
1.859455567605704,0.6691665721165431,0.1038837069868637,-0.5076120223550004,-0.4240349436411952,0.1053898365154912,5
1.7944403988404485,0.7184445018649496,0.0103848124675662,-0.5058394893740188,-0.4289503423032503,0.1492000500807429,5
1.7145247647236537,0.678573583009743,-0.0681740120134393,-0.4429145806496631,-0.4742812336186953,0.1005220342697775,5
1.7218767177343388,0.7325533431671974,0.0453587144980361,-0.3005211381791103,-0.5100544045677936,-0.0564645383082026,5
1.7468381675099445,0.9278241958909472,0.3008962524277289,-0.2641842193292822,-0.5054120873376063,-0.0962182544328073,5
1.7212965506791618,0.9642210868628746,0.3385062986463178,-0.2780690569801412,-0.4912120497410724,-0.0921617503459887,5
1.7458712224179829,0.9304824804863014,0.2887708529999083,-0.3120426001353925,-0.4737350797031684,-0.1165007549283856,5
1.773735092625362,1.016566010369374,0.2929878198633714,-0.2833866559230859,-0.4805620215436719,-0.1457075617564963,5
1.6785338002761314,0.94909047265378,0.3355188605303445,-0.2721606153236013,-0.5108736399151883,-0.231705385923038,5
1.6487344547289404,0.8272247905804404,0.3376280638266823,-0.3613781119264703,-0.5220698220281157,-0.3225709990429504,5
1.6253201171004734,0.6035319006708255,0.2734794890337622,-0.4266663624640315,-0.5119659522203465,-0.3448817582281095,5
1.6771784919914965,0.9198493421048852,0.2393852615521404,-0.4559131542301293,-0.5138774953987949,-0.3120240963926279,5
1.6870476725530592,1.0725909913780745,0.2632862062091398,-0.4281434740882154,-0.5275313746056977,-0.178565223591978,5
1.5738501054021232,1.025971346225022,0.346591817903815,-0.4195762305401053,-0.5231621343332737,-0.1351606591061738,5
1.5067044871227755,0.8767070749102163,0.4017766386196024,-0.4594582153518965,-0.5321736963099892,-0.1891121262423005,5
1.3526780597527324,0.5425990596341558,0.4834985481805084,-0.6621178227375856,-0.5739545782263007,-0.3424478571052527,5
1.30352871627509,0.6115050794193355,0.5840276404445278,-0.7578345891900022,-0.6094547080104703,-0.3935597806852465,5
1.3037221052934824,0.9106483608306069,0.664344374294017,-0.685751594203941,-0.7189588499421858,-0.3582682110807364,5
1.2855340266292732,1.3105970771713065,0.8963322614945646,-0.5560612507149018,-0.7692050683340166,-0.2933642055071828,5
1.245672111502128,1.1494718649493163,1.0409717773716889,-0.3501520713269858,-0.7391665269202637,-0.2365731881687517,5
1.241802745978393,1.0137033711926506,1.0360507829233043,-0.3392214520842988,-0.5761392341553473,-0.3452874073075571,5
1.2419961349967852,0.8470572351985829,1.0077557847097025,-0.3844210358390347,-0.5146967262720853,-0.4272287406796233,5
1.2541859837790554,0.8824323532636632,0.955558402109888,-0.481614875194068,-0.4628119700739002,-0.5339147011288479,5
1.257281793229221,0.9032882458262048,0.925154200599948,-0.4777743878753073,-0.4669081378626648,-0.5164717441894023,5
1.2522520935951322,0.9930518332114784,0.8973861432781274,-0.4505955552871846,-0.4838389495109376,-0.4633315752121708,5
1.2031027501174898,1.0349679729179309,1.0042414057019475,-0.3652185992452311,-0.5305352300893043,-0.3367687567006439,5
1.1593714694666095,1.0364001300250687,1.0856120213349996,-0.2748194172151715,-0.5359967826668862,-0.2751099437626707,5
1.0984190552434816,1.063390010103796,1.15626385298086,-0.2603437320105214,-0.5204313558074306,-0.2661856374301384,5
1.083518589891942,1.0678874859314742,1.146421864084092,-0.2473451584300553,-0.4710043011773253,-0.2682138894735477,5
1.0643619809798828,1.0141120803553894,1.059601873381662,-0.2426184070409018,-0.403554122593789,-0.3014772070346485,5
1.046947458389243,1.0462141750434553,1.107932143316655,-0.2396641837925339,-0.375700201316248,-0.3197314488406459,5
1.0347576096069726,1.0995808714568014,1.160305172880396,-0.2219388588229141,-0.3317347305824548,-0.3140523484360372,5
1.001669065591224,1.141294331619437,1.1652261673287805,-0.2204617665595138,-0.3145308375023143,-0.2921472516226686,5
0.9939287493878656,1.1574467187353783,1.134646318854913,-0.2248930772310862,-0.3079769726195742,-0.2373844863276468,5
0.9952824725166118,1.1895488134234444,1.1211143039864633,-0.1811706147809259,-0.3371962831600368,-0.2024985790949274,5
0.9879305195059268,1.2380093248463735,1.1420278105274893,-0.1495604473202514,-0.3582232625970742,-0.1976307768492137,5
0.9590981190506976,1.269702710371701,1.213380790299846,-0.1209045127883365,-0.3877156143024657,-0.2130454750990783,5
0.9327829461463452,1.3146858438362463,1.2383370564696203,-0.1288808991022637,-0.3765194321895383,-0.2446861830500458,5
0.8892450545138573,1.353741019403527,1.2437864315389984,-0.1164731827559805,-0.3694194133912714,-0.2544217875414732,5
0.8551879802502584,1.3183675763759992,1.2190058123331509,-0.0736369746958214,-0.3524886330617289,-0.2783551430444226,5
0.8282926402907295,1.3146858438362463,1.2114486736966477,-0.0370046344891956,-0.3396539847281165,-0.2994489549912392,5
0.7911397565769649,1.3285903305571245,1.21707225600074,-0.0145525532902265,-0.3418386048643284,-0.3030998099986102,5
0.7847547486582412,1.3388147597758022,1.2299016830134817,0.062257197925184,-0.3434770710850134,-0.2970150538683823,5
0.7491505622475039,1.3306355514083703,1.2299016830134817,0.1709725185972831,-0.3399270616858799,-0.2564500395848825,5
0.7299939533354447,1.2410763186044664,1.18332788271776,0.2256256051303261,-0.3462078451367522,-0.2292714848001812,5
0.7063862266885851,1.1778939021351813,1.1597782319886147,0.3290233655810478,-0.3694194133912714,-0.1866782251194436,5
0.6291796239851712,1.084041548084968,1.1583716165479854,0.3801313522707564,-0.3877156143024657,-0.1672070161365889,5
0.5448144572894645,1.0642074284292733,1.1631169640324426,0.5068674386300565,-0.4524350188342632,-0.1201516032895852,5
0.5107573830258657,1.0122712140855128,1.169971514813237,0.6504426246101506,-0.5400929504556509,-0.083237450659628,5
0.5279785165981132,0.8648478090405839,1.1567907938726416,0.6938696753839049,-0.5736815012685372,-0.0605210357488497,5
0.5357188328014715,0.8452180439662584,1.134295024927059,0.7736335724045489,-0.6282970673112959,-0.0171164845553886,5
0.4395490102043908,0.8519650952265523,1.1047690582367544,0.919276674000855,-0.7197780808154761,0.0112790241138269,5
0.3317695058802168,0.6342018382517536,1.1989705406117603,0.968021323717554,-0.757462727831458,0.0376462940319762,5
0.2543695141584107,0.5139726678669213,1.254857949183256,0.9293210243329532,-0.7656550589348832,0.08632430319677,5
0.0953118019983904,0.3142026642779407,1.3160176461309905,0.8542838109387201,-0.739985757793554,0.0920033836628643,5
-0.0149833447207721,0.1393789949539937,1.3321872449167722,0.6596007108718559,-0.6471394266121213,0.0851073559584274,5
-0.0500073640763326,0.1209770324054368,1.3448410249655864,0.4705305197802283,-0.5501968202634201,0.033184127573367,5
-0.0734201165489114,0.1579869871214721,1.3327141858085534,0.3892894385324618,-0.5007697656333148,0.0007321214635044,5
-0.077096093054254,0.1798646525908606,1.3068796848191433,0.2776198994521907,-0.4060118196877643,-0.0398328928199953,5
-0.0832892971104737,0.2348678606927141,1.2429067569901502,0.2563495085206079,-0.3371962831600368,-0.0528136833008316,5
-0.0832892971104737,0.2015379634788797,1.2082841488875349,0.2681663918336877,-0.3068846647885204,-0.0613323339077448,5
-0.086191717542247,0.1796602980094912,1.192818577686674,0.2755519451144115,-0.2560922029990761,-0.0828318015801804,5
-0.1051549374359139,0.1283371474098386,1.1641722855452177,0.2717114577956508,-0.2416190884447787,-0.0937843533099504,5
-0.0974146212325556,0.0449135771596723,1.1075808493888009,0.2525090212018471,-0.2246882723224016,-0.1286702605426699,5
-0.1297296091747351,-0.0027295159377792,1.0819219953633177,0.198742193899001,-0.2154036333879227,-0.1931686236829475,5
-0.2038388172720948,-0.0906522370531761,1.0796371451030529,0.1653595128181285,-0.2151305564301593,-0.2260262788722577,5
-0.2222218701105847,-0.1548564264293082,1.0724313003944037,0.1092293049805097,-0.2208651859655047,-0.2487426871368644,5
-0.198809117638006,-0.1495398572386,1.05837090490496,0.0950490411326572,-0.2293305940266932,-0.2069607322611935,5
-0.1763617251015004,-0.0912653007972844,1.0035373781170267,0.1145469039234543,-0.227145969416377,-0.1696409172594457,5
-0.1935844438296363,-0.0726589836673581,0.9239246718524584,0.1928337522424611,-0.2134920902094742,-0.0889165510642367,5
-0.2106121883834915,-0.0869721795509752,0.8935190306133058,0.2982994670309619,-0.2189536427870562,-0.0309085931336346,5
-0.2518278266393833,-0.167533110624418,0.8597760970595384,0.3432036245887043,-0.2276921278060082,-0.0211729886422071,5
-0.298461527722037,-0.3122999061115451,0.8571399528714192,0.3612243757553176,-0.2361575358671968,-0.0313142422130821,5
-0.3122000738073342,-0.3732327471482148,0.8638188566882867,0.3195698579625448,-0.2260536615853232,-0.0191447365987979,5
-0.2971062194374022,-0.4129009864596044,0.8569643059074921,0.3151385279301888,-0.2159497873034496,0.012090322272722,5
-0.3659923388822808,-0.4486831386498713,0.8536255738636644,0.359451842774336,-0.1815420011431685,0.1090406848766907,5
-0.4112723168361882,-0.4609511136822425,0.8675088826599687,0.4495555502054431,-0.158057342508573,0.2283018199581616,5
-0.4654513599479195,-0.3975660176691403,0.8488802263792076,0.5047994842922773,-0.1553265639827299,0.3057810201024764,5
-0.3896000655291403,-0.3495142154089499,0.7794593632100492,0.6616686652096351,-0.1719843031473435,0.4635788642546655,5
-0.3234229774976427,-0.4452074357290397,0.7411467291357516,0.8211965318538615,-0.2052997591060491,0.5329450362868283,5
-0.2874320130501207,-0.7410793688008488,0.6998452172162682,0.8593059836846713,-0.2159497873034496,0.5280772340411146,5
-0.4089500634595919,-0.8721460321484665,0.6687384278506198,0.8463074101042051,-0.2006574374017575,0.5017099774153083,5
-0.4424253855121253,-0.8858444892504235,0.6095108475060838,0.8093796485407818,-0.1247418597052414,0.5252376838388103,5
-0.3981139378060679,-0.9222413802223508,0.5007220287498527,0.8114476028785609,-0.0895148471457743,0.5597179419920821,5
-0.3441266985568406,-0.9772445883242044,0.4741849399047342,0.8666915369653951,-0.0914263858501184,0.65017791932489,5
-0.3164562173678538,-0.9780620066496816,0.4587193687038735,0.9659533693797748,-0.1542342516775717,0.7479396465494691,5
-0.2106121883834915,-0.9473920690687536,0.3446582615714042,1.0214927248234065,-0.1670689044852885,0.7897216080713115,5
-0.0145965666839875,-0.9381894127569228,0.160298056450141,1.1724534253626573,-0.1495919344473845,0.8509747785760087,5
0.0960869432278481,-0.9717236645521266,0.0861318457965256,1.381316934483251,-0.1408534404802238,0.8850493876498331,5
0.2313435397226166,-1.0847970745139266,-0.0841679638352938,1.4655122341391895,-0.1386688203440119,0.8874832887726899,5
0.2859109460270209,-1.1592240180711837,-0.2799509805286692,1.532277484976429,-0.1072648896673374,0.8521917258143514,5
0.2986809618644681,-1.200937478233819,-0.3486678161129066,1.4953498686188824,-0.0660301661406571,0.8014854646061483,5
0.3652448279327503,-1.2731165213960134,-0.4841708104073958,1.433606645321717,-0.0430916479992755,0.7836368585872552,5
0.4277459394589052,-1.1590196634898144,-0.6223085091607917,1.2368555183141354,0.0169854348282303,0.7418548970654127,5
0.4470959373893569,-1.0465609923096748,-0.6903227568893207,1.077918349177627,0.1240318707177619,0.6684321744232307,5
0.4333573913040595,-0.8825731409109615,-0.8103587402537367,1.040104318703615,0.2029513038978846,0.6307067103420352,5
0.4565783399141344,-0.7934242923073482,-0.8806578382425305,1.0353775624742656,0.3902825577563561,0.5702648446424047,5
0.5303007699747095,-0.68382658526638,-1.0637885146163042,1.0826451005667803,0.5276406209656127,0.551199291385169,5
0.4565783399141344,-0.4069713535247882,-1.2404144944079245,1.1201637096839951,0.5440252786983586,0.5406523887348464,5
0.3700827237043353,-0.2002499440941443,-1.298059812347904,1.2111537199070623,0.5115290401906303,0.4388342105928209,5
0.3027453015624838,0.0624981213827518,-1.310362298468864,1.2584213354427116,0.4891366714906712,0.3370160789739962,5
0.3364140126334096,0.1412198612238702,-1.3367251800792683,1.3795444015022695,0.5098905739699453,0.0903807806989025,5
0.3998820692515261,0.0649520513967364,-1.3701168197051814,1.3331631274801472,0.5546753068957591,-0.0373989916971385,5
0.4751531966151282,-0.0477126494023246,-1.319852993437778,1.2220844117526877,0.5224521453457942,-0.0203616904833121,5
0.3936904503511949,0.0872384260288636,-1.2479716330444277,0.9931322019678976,0.4132210848459464,0.0275050271687582,5
0.3934970613328025,0.1806820709163381,-1.2683581986936725,0.7987444506548925,0.3777209863805072,-0.045511979932261,5
0.3635043267672194,0.3951739795516746,-1.3745108732617843,0.6950513656512912,0.3853671635684054,-0.1002747518734544,5
0.2456622528630908,0.4446562638814505,-1.4224898492689229,0.6259225890734021,0.4077595277942601,-0.2195358803087538,5
0.2249569466480045,0.4681704410393462,-1.4349679823538102,0.6575327565340767,0.3845479282210107,-0.3367687567006439,5
0.2799111309891935,0.5135639587041825,-1.4349679823538102,0.6746672387901012,0.3755363662442953,-0.3813902684247907,5
0.2274725890429932,0.4826879915043328,-1.4282890785369424,0.5884039460748164,0.3706209675822402,-0.4608976807354855,5
0.1955459642934868,0.5119274470156753,-1.4272351967533798,0.3511800254232194,0.3408555389190854,-0.5326977472443336,5
0.1872254810349515,0.6106876610938579,-1.4421738270624591,0.2253301837735285,0.3124554637260175,-0.5432446498946562,5
0.1295622652803816,0.7896017721202969,-1.4848805146933592,0.0510311524855035,0.2373590900581657,-0.555819804588388,5
0.0871847077582474,0.7740607737109112,-1.470293178312134,0.080573360768203,0.1573473535210935,-0.6268085995230271,5
-0.0056943312143868,0.6485150341353708,-1.416339326073049,0.0906177111003012,0.1278549570746588,-0.6665623156476318,5
-0.1223760710081614,0.6297043624240752,-1.385055450014261,0.0876634878519333,0.0986356465341962,-0.7432301312328214,5
-0.1397905935988013,0.6061901852661795,-1.3766200765581222,0.1245912542555526,0.1385049852720593,-0.7537770405293154,5
-0.1223760710081614,0.5783812118244226,-1.39683099524344,0.1192736553126079,0.1663589154978089,-0.7180798284915294,5
-0.1101846370700028,0.5677480734430064,-1.4625603927117037,0.0528036903066809,0.1901166555642722,-0.5967904679513353,5
-0.1372749512038126,0.6129372365264733,-1.5070249897110877,-0.0547299594588153,0.1630819830564389,-0.4953779388887573,5
-0.2046139585015526,0.7014730213859783,-1.5425258326333386,-0.0854538531687053,0.1409626823660346,-0.4726615306241506,5
-0.2460229857758366,0.7161949264323343,-1.5356712818525442,-0.1214953555019317,0.0980894926186693,-0.4548129246052576,5
-0.2655663727246805,0.7415499698601065,-1.5347930470329088,-0.1501512948740425,0.0754240559091555,-0.4377756433299458,5
-0.2680820151196691,0.7532048811483696,-1.5370778972931736,-0.1628544422575151,0.0726932773833123,-0.4292569927230326,5
-0.2502791293363562,0.7151731535254875,-1.5883956053441393,-0.1974188378067535,0.0511201395566436,-0.439803895373355,5
-0.246216374794229,0.7110843868605478,-1.5917357771171796,-0.2113036802978084,-0.0226108224777649,-0.4844253871589873,5
-0.2775628324885584,0.6701900200609421,-1.5260063796489154,-0.2015547513225078,-0.0695801755397906,-0.5014626883728138,5
-0.2922699088217057,0.6883876280281296,-1.4658991247555315,-0.2033272843034893,-0.1342995755974837,-0.5209338973556685,5
-0.2992350837956063,0.7329620523299362,-1.4599242485235846,-0.2588666203863375,-0.1430380606164357,-0.4917270838813863,5
-0.3408375000882826,0.8198630005384863,-1.4492040248071811,-0.3108609147082021,-0.1545073331094395,-0.4852366853178825,5
-0.3934694310528753,0.8102533101014692,-1.409484775292254,-0.3291770823914169,-0.1692535246215003,-0.523773447557973,5
-0.4370073226853633,0.8411276022637667,-1.3416461745276522,-0.3460161626514274,-0.1891881783310667,-0.6523645579899383,5
-0.4573258508636649,0.8037106134225447,-1.3151076459533213,-0.2892950975796258,-0.1785381635559792,-0.7659465394974282,5
-0.490219420705133,0.6452436857959086,-1.3071992133889636,-0.2724560366803989,-0.1635188950861549,-0.7947476972460913,5
-0.4393295760619597,0.5221518762343528,-1.2743345146548315,-0.2836820772798835,-0.1353918879026418,-0.8170584564312504,5
-0.3955982954110793,0.4556981114256056,-1.26273461638958,-0.3102700671544109,-0.1225572350949251,-0.7842007945957687,5
-0.3776036057652625,0.4632625810113768,-1.2873395886315002,-0.3309496153723986,-0.1258341675362952,-0.7639182874540189,5
-0.3857307000054055,0.5098839012019816,-1.3421731154194336,-0.3764446398447157,-0.1626996597387603,-0.7858233975597304,5
-0.3950181283559024,0.5062021686622286,-1.3448092596075527,-0.4349381798151482,-0.246261405674966,-0.9314517892670076,5
-0.4929284521185139,0.4536528905743596,-1.2302212115833022,-0.4417328903822768,-0.2803961148774836,-1.044628221387623,5
-0.498734878137949,0.3031608167337857,-1.1235430358526215,-0.4290297381586083,-0.2929577041497499,-1.2653017858390987,5
-0.4975729588717066,0.305410392166401,-1.105264233770502,-0.4822057179076633,-0.2817615041404052,-1.404439778982872,5
-0.5258236071158704,0.3906765037239962,-1.0945440100540984,-0.5144067280819331,-0.2847653551499075,-1.4725889971305206,5
-0.5660723002798006,0.3430334106265445,-1.15008012469774,-0.5669918651173929,-0.3115269820187077,-1.701781311881483,5
-0.6165753668861892,0.2052196960186328,-1.1376019916128528,-0.5170655299735033,-0.3598617288177593,-1.9849251934611445,5
-0.618510842226001,-0.2045430653404535,-1.0611523704281849,-0.5129296212979451,-0.3825271386826472,-2.012915053050913,5
-0.488478919539602,-0.2209014820753166,-0.919498852937822,-0.5519253371991476,-0.3907194697860722,-1.8936539179694412,5
-0.687203572652487,-0.1399301668015829,-0.9653686256486226,-0.6124868702289264,-0.3705117256964295,-1.6729801541328198,5
-0.7406090596906489,-0.2055648382473004,-1.0680054814797673,-0.6801385739041987,-0.2913192379290649,-1.85836225531853,5
-0.4302355367298551,-0.5327214476816979,-1.1353171413525878,-0.6378931746762635,-0.2864038213705925,-1.991009949591373,5
-0.199389284693183,-0.5666644086396404,-1.00702143149596,-0.4154403218645469,-0.3959079454058907,-1.9236720296026188,5
-0.4046923347431838,-0.4775138849984751,-0.9553509897879272,-0.3209052650403003,-0.4633581284635314,-1.6405281413767856,5
-0.7440932323334878,-0.6126693150110327,-1.0857559029408927,-0.3968287667059057,-0.4054656657722374,-1.6575654492367835,5
-0.3330971838849244,-0.8371812982836773,-1.1991144222176535,-0.5294732560001785,-0.3060654294411257,-1.7545158251330952,5
-0.134179141753647,-0.7414880779635875,-1.140413782764899,-0.3661048681558199,-0.4128387615282679,-1.472183348051073,5
-0.3104579874859148,-0.2303068179309645,-0.9305703705820798,-0.2881134121524353,-0.4737350797031684,-1.2790938877711733,5
-0.7375132502404834,0.1025733948193277,-0.9558779306797086,-0.3740812641501389,-0.4379619042799657,-1.171596708917112,5
-0.7601540317953814,0.0608616096942445,-1.0430492153099926,-0.6299167786819445,-0.3131654482393927,-1.5407382152781697,5
-0.5720705301617395,-0.2360320962844114,-1.0495524721629332,-0.5342000122295278,-0.3249077887419513,-1.7488367247284864,5
-0.5449802160279296,-0.3675074687947681,-0.9520122577440998,-0.3808759698770717,-0.3473001574419103,-1.7281485685072893,5
-0.5811661546497324,-0.4323247219150081,-0.9066694259250804,-0.2715697726100061,-0.3560386424608623,-1.5845484288434213,5
-0.6515993862417496,-0.5194300247049275,-0.826177045111664,-0.4538451950521542,-0.286130744412829,-1.4815132968168816,5
-0.5540758405159226,-0.5942673524624758,-0.8759124907580736,-0.5601971593904601,-0.235884454435329,-1.4551460401910754,5
-0.4370073226853633,-0.6891431544570881,-0.9397097716231396,-0.6875241271849226,-0.204207446800891,-1.3650917119377148,5
-0.4074013661565648,-0.6995702632195827,-0.93830315618251,-0.6520734724054873,-0.2402536991818571,-1.1979639655429182,5
-0.3955982954110793,-0.613284053792693,-0.8792526625311137,-0.5986020325780674,-0.2571845153042342,-1.1188621956654996,5
-0.3729590990120698,-0.6605167626898536,-0.8759124907580736,-0.5087937126223867,-0.2702922405956101,-1.0284022183326915,5
-0.3777969947836548,-0.682394428159242,-0.8622048289256966,-0.5327229006053439,-0.2855845904973021,-0.9537625484521668,5
-0.3998560241274874,-0.6455905030621283,-0.8595686847375774,-0.5640376467092209,-0.2787576486567986,-0.9022449824388972,5
-0.3623163623769382,-0.6134884083740624,-0.8815375127913787,-0.5950569666161043,-0.2634652987551065,-0.7789273432706075,5
-0.3433531424832713,-0.6218719713228633,-0.9082502486004242,-0.6603452897566041,-0.2727499376895854,-0.6377611512527972,5
-0.2771760544517737,-0.6682872618945466,-0.9325039269144904,-0.7362687720614258,-0.2874961336757506,-0.5619045540724443,5
-0.2491187952260022,-0.5249509484770052,-0.9319769860227092,-0.8819118010547934,-0.2986923336850953,-0.4706332785807414,5
-0.2518278266393833,-0.4169897531245439,-0.948673525700272,-0.8845706029463637,-0.2752076392576651,-0.5107926437847936,5
-0.1854573495894933,-0.4889644417053688,-0.9539458140765104,-0.8148509836548794,-0.2803961148774836,-0.5258016996013822,5
-0.1655271846038648,-0.5061402767657094,-0.9817138713983312,-0.7625613405791557,-0.2948692473281984,-0.4961892370476525,5
-0.1680412418429651,-0.4828304541891832,-0.9564063113007024,-0.5891485249595644,-0.3131654482393927,-0.4527846725618483,5
-0.1376617292405973,-0.5000062892495238,-0.9142265645615836,-0.4346427584583506,-0.3243616348264244,-0.4377756433299458,5
-0.1034128511144946,-0.6073544208578768,-0.8873367420593983,-0.3983058783300896,-0.3382885954651949,-0.4292569927230326,5
-0.13359897469847,-0.5361971506025296,-0.8131705314057829,-0.3838301931254395,-0.347027080484147,-0.428851343643585,5
-0.1506267192523252,-0.4977567138169086,-0.7931352596843925,-0.3480841169892066,-0.2874961336757506,-0.4093801413069018,5
-0.1283743008901004,-0.5613478394489324,-0.7279328031079098,-0.327699975607429,-0.251722958252548,-0.3769281152585246,5
-0.1190868725396035,-0.6372069401133275,-0.6665974591962485,-0.3510383402375745,-0.2132190087776065,-0.2945811527455255,5
-0.1264388255502887,-0.6762604406430566,-0.6557001487867051,-0.4491184436630007,-0.202568980580206,-0.2369788372481992,5
-0.1459822124991326,-0.6596993443643763,-0.6328530859132683,-0.4910683828125711,-0.1957420387397025,-0.2357618900098566,5
-0.1308899432850891,-0.6093979666715705,-0.5794261745659643,-0.5469031644531964,-0.1711650677999488,-0.2621291399894913,5
-0.1305031652483044,-0.588542074109029,-0.6013950026197656,-0.5767407940926935,-0.1403072865646969,-0.263346087227834,5
-0.1229562380633384,-0.5212708909748043,-0.6136974887407258,-0.5678781340279816,-0.1359380418181687,-0.2637517363072815,5
-0.1101846370700028,-0.5372205985469285,-0.5230103853734747,-0.4662529259190251,-0.1184610717802647,-0.27713819580608,5
-0.1076689946750141,-0.6126693150110327,-0.4669473298380516,-0.2452772040922761,-0.0447301142199605,-0.2114228787812881,5
-0.1165712301446148,-0.5899742312161668,-0.4170347974985024,-0.1079059392078704,-0.002949232303649,-0.1793765217508731,5
-0.1186985093469304,-0.6398652247086816,-0.4412884758125685,0.143793700529748,0.0675047972893895,-0.1570657692118854,5
-0.1140555877496262,-0.7204278308196765,-0.5627296348884016,0.1694954069730991,0.0634086339747291,-0.1351606591061738,5
-0.1018641538114675,-0.7472133563170344,-0.5987588584316464,0.0977078430242275,0.0287277753307889,-0.126236359419813,5
-0.1036062401328869,-0.7416924325449569,-0.5922556015787059,-0.0579795992237849,-0.0359916247269042,-0.1246137564558513,5
-0.1231496270817307,-0.720632185401046,-0.5839958750864943,-0.134493919402006,-0.0545609070699663,-0.1448962635976012,5
-0.1792657306891621,-0.6952771419732736,-0.6050850285914474,-0.1545826249063984,-0.0447301142199605,-0.1448962635976012,5
-0.2067412377038681,-0.6676725231128862,-0.6126421672279506,-0.1356756096693924,0.0038777095368545,-0.1160951058489381,5
-0.2137079978336571,-0.6392521609645733,-0.5878615480221032,-0.0523665789240427,0.0459316639368251,-0.0937843533099504,5
-0.1937778328480286,-0.6494749151456988,-0.5159801876287528,-0.011302908685061,0.0524855288195652,-0.0958126053533597,5
-0.1889399370764436,-0.676056086061687,-0.5129927495127794,0.0176484568840432,0.0393778035281893,-0.115689450123319,5
-0.178877367496489,-0.7185869645498,-0.5310944649017592,0.006126994927761,0.0243585305842607,-0.1242081073764037,5
-0.1595273695660375,-0.7247209520659855,-0.571517742001607,-0.0092349543472818,0.0112508052928849,-0.140434110431335,5
-0.1430797920673592,-0.7314680033262794,-0.5841715220504214,-0.0189838833225824,0.013981583818728,-0.1444906145181536,5
-0.1169580081813994,-0.7435316237772813,-0.6013950026197656,-0.0322778782598462,0.0175315932178615,-0.1453019126770487,5
-0.1157960889151571,-0.7081581807497532,-0.5890925164988055,-0.0550253808156129,0.0216277565325219,-0.1509810130816575,5
-0.1142489767680185,-0.6960945602987513,-0.5732742116408781,-0.0538436905482266,0.0175315932178615,-0.1590940146091232,5
-0.1140555877496262,-0.6789187252384106,-0.5558750841076067,-0.0449810304835147,0.0158931269971765,-0.1643674659342844,5
-0.1157960889151571,-0.6803508823455483,-0.535664165422289,-0.0316870355462509,0.012343117598043,-0.164773115013732,5
-0.1216025149345922,-0.680146527764179,-0.5344346366747993,-0.0281419695842878,0.0112508052928849,-0.157471418291333,5
-0.1326320296065084,-0.6525419089037914,-0.5585112282957257,-0.0201655735899688,0.0112508052928849,-0.1582827164502281,5
-0.1326320296065084,-0.6484531422388519,-0.585401050797911,-0.008348690276889,0.0167123578704668,-0.1627448696164942,5
-0.1306965542666967,-0.6431365730481438,-0.5926068955065602,-0.0062807310989139,0.0224469874058122,-0.1619335648114276,5
-0.1231496270817307,-0.6425235093040357,-0.5822379657180107,-0.0006677156393675,0.0199892903118369,-0.1639618168548369,5
-0.1190868725396035,-0.6768751794247169,-0.5639606033651038,0.0173530355272456,0.0101584929877268,-0.168423970021103,5
-0.1113465563362452,-0.6938449848661359,-0.5562278177646734,0.0279882285729391,0.0060623296730664,-0.171669169302855,5
-0.0981881773061249,-0.726970527498601,-0.5634322227441099,0.0271019596623504,0.0068815650204611,-0.1769426206280162,5
-0.1121201124098144,-0.726970527498601,-0.5648388381847393,0.0025819289657979,0.000327700137721,-0.1809991247148348,5
-0.1219892929713768,-0.7257427249728324,-0.56677239451715,-0.0367092082922021,-0.0114146403648375,-0.1777539187869113,5
-0.1339857527352547,-0.7153156162103378,-0.5616757531048389,-0.052071157567245,-0.0135992605010494,-0.1765369715485687,5
-0.1334055856800776,-0.6989571994754746,-0.5646631912208122,-0.0609338224721528,-0.0064992417027825,-0.1753200176640545,5
-0.138436870470055,-0.6962989148801205,-0.57573470886507,-0.0458672945539075,0.0096123390721999,-0.16152791573198,5
-0.1531423616473139,-0.6889387998757186,-0.6003396811069904,-0.0316870355462509,0.0186239010489153,-0.1513866621611051,5
-0.1554646150239102,-0.6932319211220278,-0.6012193556558385,-0.011302908685061,0.0273623860678673,-0.1311041616655267,5
-0.1719121925225885,-0.6783056614943025,-0.5769656773417723,-0.0089395329904842,0.0265431507204726,-0.1270476575787081,5
-0.1980339764085482,-0.6807595915082871,-0.5469127697596866,-0.0092349543472818,0.0290008522885523,-0.1327267579833169,5
-0.2069362118781489,-0.6772838885874557,-0.5368951338989914,0.0046498833035771,0.0412893467066378,-0.1465188599153914,5
-0.1953249449951672,-0.7171548074426621,-0.5279313798218587,0.0182393044378344,0.0511201395566436,-0.1509810130816575,5
-0.1771368663309581,-0.734945381284663,-0.5481422985071763,0.0268065383055527,0.0721471234677854,-0.1550375171684761,5
-0.1610760668690645,-0.7451681354657885,-0.5586883149888655,-0.0012585583529627,0.0841625409281075,-0.1546318680890286,5
-0.1324370554322276,-0.7517108321447128,-0.6038554998439577,-0.0266648579601039,0.080612531528974,-0.1534149142045144,5
-0.1028326840593175,-0.7224713766333702,-0.617914455604189,-0.09077145211165,0.0543970719980136,-0.146924508994839,5
-0.0964460909847056,-0.7052955415730296,-0.6191454240808912,-0.1235633001593191,0.0434739713169541,-0.1315098107449743,5
-0.1086375249228641,-0.641295706778267,-0.5970009490631629,-0.1200182487179436,0.0453855100212982,-0.1254250612609179,5
-0.1212141517419191,-0.6194180413088786,-0.5736269452979448,-0.0901806093980547,0.0538509180824867,-0.1173120530872808,5
-0.1185051203285381,-0.6431365730481438,-0.5558750841076067,-0.0420268072351468,0.0593124706600687,-0.115689450123319,5
-0.1070888276198372,-0.6926188573779196,-0.5029751136520841,-0.0231197919981408,0.0579470813971471,-0.1173120530872808,5
-0.1127002794649914,-0.7079538261683836,-0.5040304351648593,-0.0130754416660425,0.0533047596928555,-0.1160951058489381,5
-0.1150225328415878,-0.7010024203267206,-0.5131683964767065,-0.0248923249791223,0.049754750293722,-0.1108216545237768,5
-0.1047665742432408,-0.676056086061687,-0.5251195886698125,-0.0319824569030486,0.049754750293722,-0.1091990582059866,5
-0.0879322187077779,-0.6611298264339617,-0.5078961081004683,-0.0334595685272325,0.0486624424626682,-0.1120386017621195,5
-0.0879322187077779,-0.6625619835410996,-0.4977028252758458,-0.0299145025652694,0.0399239619178206,-0.1173120530872808,5
-0.1007038197011135,-0.6646055293547933,-0.5033264075799383,-0.0293236598516742,0.0350085632557655,-0.1209629014484802,5
-0.1047665742432408,-0.6764647952244258,-0.547615357615395,-0.0213472590171592,0.0300931601196061,-0.1221798553329944,5
-0.0987683443613019,-0.6862805152803646,-0.5477910045793222,0.0206026801324111,0.0322777847299224,-0.1112273036032244,5
-0.081933988825839,-0.7537560529959588,-0.5386530432674749,0.0344875129430742,0.0355547171712924,-0.1075764552420249,5
-0.0844496312208277,-0.7647979005401137,-0.5507784426952955,0.0220797917565951,0.0361008710868193,-0.1059538589242347,5
-0.0947055898191746,-0.7686823126236841,-0.5711664480737527,0.0005139746280187,0.0292739292463158,-0.1063595080036822,5
-0.0972212322141633,-0.7805415784933166,-0.5551724962518982,-0.0115983300418586,0.0246316075420242,-0.1079821043214725,5
-0.0993485114164788,-0.7762484572470075,-0.5430456570948652,-0.03966343154057,0.0137085023868603,-0.1144725028849763,5
-0.1123135014282068,-0.7361715087728794,-0.5288110543707069,-0.0458672945539075,0.005243098799776,-0.1246137564558513,5
-0.1208273737051344,-0.7392385025309722,-0.5224834444816933,-0.0405496956109628,0.0030584741894598,-0.1311041616655267,5
-0.1117333343730298,-0.7555969192658353,-0.5163329212858194,-0.0358229442218093,5.4623179957571646e-05,-0.146924508994839,5
-0.0709044741539227,-0.8030339827443653,-0.4941884462680911,-0.0429130761457355,-0.0059530877872556,-0.1594996703347423,5
-0.0254326923375114,-0.8016018256372276,-0.4769649656987468,-0.049116939159073,-0.0130531021114182,-0.1631505186959418,5
-0.0113057830595411,-0.7678648942982066,-0.4687052392065352,-0.050594050783257,-0.0294377643182684,-0.16152791573198,5
-0.0277533605582193,-0.6504966880525456,-0.4862800137037337,-0.025778593889711,-0.0277992980975834,-0.1493584101176958,5
-0.0391712384228087,-0.606535327494847,-0.5156288937008985,-0.0080532689200913,-0.0212454332148433,-0.1440849587925346,5
-0.0399447944963779,-0.630664243434403,-0.535664165422289,0.0143988171190736,-0.0122338712381279,-0.1384058650340973,5
-0.0453628573231399,-0.684439649010488,-0.5622026939966202,0.0073086803549515,-0.0198800484260261,-0.126236359419813,5
-0.0627773799137798,-0.6811683006710259,-0.5766143834139181,-7.687292577232233e-05,-0.0201531253837895,-0.1205572523690327,5
-0.0693573620067841,-0.6774882431688249,-0.5787235867102559,-0.0059853097421163,-0.004587698524334,-0.1205572523690327,5
-0.0728399494937344,-0.7112251745078458,-0.5709893613806132,-0.0124845989524473,0.0137085023868603,-0.1254250612609179,5
-0.0718714192458844,-0.7496672863310191,-0.5374220747907726,-0.0145525532902265,0.0175315932178615,-0.1278589623837748,5
-0.0631641579505644,-0.7954678381210419,-0.5121145146931438,-0.0115983300418586,0.0148008146920184,-0.1311041616655267,5
-0.0604551265371834,-0.8110088365304275,-0.5061396384611971,-0.0225289492845455,0.0055161757575395,-0.1315098107449743,5
-0.0567791500318408,-0.8171428240466131,-0.5136967770977003,-0.0316870355462509,0.0011469310110113,-0.1319154598244218,5
-0.0560055939582715,-0.7987391864605041,-0.5261749101825877,-0.0485260964454778,-0.0043146215665705,-0.1339437118678312,5
-0.0631641579505644,-0.7774745847352238,-0.5353128714944348,-0.0494123605158706,0.0011469310110113,-0.1278589623837748,5
-0.0724531714569498,-0.7547778259028056,-0.5419917753113025,-0.0414359645215516,0.0063354066308298,-0.1250194055352989,5
-0.0645194662351991,-0.757027401335421,-0.5333793151620241,-0.0296190812084718,0.0142546607764915,-0.1250194055352989,5
-0.0639392991800222,-0.7566186921726822,-0.5226590914456204,-0.0346412539544229,0.01944313639631,-0.1258307103403655,5
-0.0592947924268295,-0.772772754326176,-0.498758146788621,-0.0449810304835147,0.0205354442273638,-0.1254250612609179,5
-0.0370423740646046,-0.8486318549905709,-0.4391792725162307,-0.0635926195235272,0.0156200455653087,-0.1359719639112404,5
-0.0140148144729221,-0.9228544439664588,-0.3730971413908999,-0.1073150964942751,-0.0111415634070741,-0.1704522220645123,5
0.0428732600521901,-1.0755960932396482,-0.2063131504960476,-0.1711262644488277,-0.0570186041639416,-0.2041211754127176,5
0.0641587333224533,-1.183557288592109,-0.2455040193899806,-0.170239995538239,-0.07777251111732,-0.1939799218418426,5
0.0163646981294457,-1.0670081757094778,-0.3189676421878876,-0.1232678884829133,-0.083234063694902,-0.1213685571740993,5
-0.0080165845909831,-1.058011549016569,-0.2994593113582784,-0.1788072390863491,0.0221739104480488,-0.0065695819050661,5
-0.024270773071269,-1.1236462204622863,-0.2430435221657886,-0.2559124019781655,0.0898971615152442,0.0619852986143731,5
-0.08464302023922,-1.155748315150352,-0.2091249416480939,-0.3962379239923104,0.1704550788124693,0.1767842539448918,5
-0.1318568883770507,-1.1596344022714749,-0.1528847994195313,-0.5374496568346934,0.1969435974047758,0.2307357210810185,5
-0.1897134931500129,-1.2383561421125933,-0.0414612762043936,-0.6201678448664479,0.2297129128702675,0.2802250616355651,5
-0.2433139543624556,-1.0541254618954463,-0.129335148690386,-0.5398130325292702,0.3222862565760233,0.4023256937499683,5
-0.2632441193480841,-0.970291507444989,-0.1579814408318424,-0.3534017159321513,0.4072133738787332,0.4871065706781673,5
-0.2690489602116307,-0.9510721265709546,-0.1629024352802265,-0.3223823766644842,0.4623750625182883,0.5357845864891327,5
-0.2580194455397145,-0.8972950459573173,-0.1527091524556041,-0.3061341584788526,0.6024639310980141,0.6505835684043376,5
-0.2607284769530955,-0.854357133344018,-0.1448007198912467,-0.3102700671544109,0.744464244425893,0.7187328397213585,5
-0.2539566909975873,-0.8564006791577118,-0.1200201006853992,-0.3102700671544109,0.8045413317275032,0.722383688082558,5
-0.2228020371657617,-0.850266691641526,-0.1228318918374454,-0.3300633513020057,0.8911069465696284,0.7134593883961973,5
-0.1835218742496817,-0.8310473107674916,-0.1258193299534188,-0.3858981474632187,0.9454493998617888,0.7061576850276267,5
-0.1210207627235267,-0.7394428571123416,-0.1184378382808427,-0.3974196094195009,0.9738494795289612,0.7114311363527879,5
-0.1007038197011135,-0.6222806804856021,-0.0996335350361544,-0.3498566499701881,1.0292842406521754,0.7207610917647677,5
-0.0759357589439,-0.5635974148815477,-0.0882092837348298,-0.2095311473168268,1.065330493033141,0.6789791302429253,5
0.0293281029852851,-0.5212708909748043,-0.1314443519867238,-0.1238587263563126,1.085811318554652,0.6351688635083014,5
0.1438809784208558,-0.5597113277604252,-0.223712278029319,0.0386234216186325,1.1325075946589145,0.5402467396553989,5
0.211993541792165,-0.578523674509273,-0.2671215535159277,0.1588602284479933,1.150257713240251,0.4716918657821311,5
0.3418320754601715,-0.5496929281606693,-0.3683517939064429,0.2149904120846326,1.147526934714408,0.4424850589540205,5
0.4583188410796654,-0.5513277648116242,-0.472395265178217,0.3562021981691705,1.1245883449873568,0.3812318884493233,5
0.5059194872542807,-0.595903864150983,-0.5059625517680575,0.55236244374159,1.077618987451227,0.335799125089482,5
0.5589397814115464,-0.7136791045218306,-0.5198473002935742,0.6380348937432796,1.046488133732316,0.3224126722368551,5
0.5668734866332971,-0.7416924325449569,-0.5576329934760903,0.7293203301633401,0.9773994889280948,0.2850928638812788,5
0.5651314003118777,-0.7020241932335675,-0.6131691081197319,0.7824962373094566,0.9244224204247514,0.2372261262906939,5
0.5949307458590685,-0.7130660407777225,-0.6964747198144071,0.8076071155598002,0.9014838978092654,0.2181605663872867,5
0.6376934962620989,-0.737601990842465,-0.7435740212726974,0.8330134151669414,0.8476876029067362,0.2165379700694965,5
0.6371133292069219,-0.7418967871263263,-0.7778453354474588,0.8285820851345854,0.7895220587835745,0.2713007619492044,5
0.6142807437895201,-0.7331045150147866,-0.8282848086787893,0.817946887248696,0.7616681375060335,0.3138940216299419,5
0.6047983412647424,-0.7300375212566936,-0.8347880655317299,0.7786557499906959,0.7212526448526436,0.4120612982413957,5
0.5769344710573633,-0.6611298264339617,-0.8950695276598287,0.6929834064733161,0.7116949960719662,0.5033325737330986,5
0.5488772118315918,-0.537424953128298,-1.011415485052563,0.6403982742780523,0.7157911593866266,0.5528218877029591,5
0.5256578483774054,-0.5276092330723591,-1.0437532428949134,0.5497036466902157,0.7321757500078075,0.6615361201341076,5
0.4801844814051055,-0.5899742312161668,-1.0885691338221517,0.4796886060419337,0.7324488314396753,0.7195441378802536,5
0.416136257731812,-0.5797498019974892,-1.1548254721821969,0.2401012903349762,0.6882103195409532,0.8436730752074382,5
0.3658265801438157,-0.5192256701235582,-1.1785522096044818,-0.0033265126907419,0.6098370313281488,0.93818945028832,5
0.2942314292855562,-0.3852963675992168,-1.1817152946843823,-0.0866355434360916,0.5808907977454496,0.9803770675357816,5
0.267527893188531,-0.283264805181572,-1.1513110931744424,-0.2204617665595138,0.5303713994914558,1.067591838940666,5
0.2806862722186513,-0.2088378616243148,-1.1129970193709322,-0.3454253199378322,0.4760289417251911,1.176711720451262,5
0.2717840367490506,-0.1454510905736603,-1.018268596104145,-0.4062822743244088,0.4563673515510752,1.2379648909559593,5
0.097827444393379,-0.2327607479449491,-1.008426607207377,-0.6136685604963128,0.4918674500165144,1.4103661883684904,5
0.0132673035233916,-0.2898075018604963,-1.0514860284953438,-1.050302405206866,0.6559871535168842,1.6651145679251078,5
0.0331990536649085,-0.3814119555156465,-1.1680061931227927,-1.3587231680986371,0.747741176867263,1.791677399728978,5
0.1471701768894137,-0.3304975140787328,-1.2901513797835464,-2.0278541046285,0.8566991648834517,1.979493202652399,5
0.1804521099235548,-0.1969785957546822,-1.3518394573522747,-2.493439353629725,0.8580645496722689,1.9843610048981128,5
0.1682622611412846,0.0475718617550264,-1.425301640420969,-2.582656980917883,0.8408606610662327,1.902014235124088,5
0.1754208251335775,0.0903054197869564,-1.4379554204697835,-2.532435219577,0.8116413505257701,1.5564003354939595,5
0.320933380226693,0.0258968758294551,-1.3576386866202943,-2.265078064001664,0.7384565379327841,1.0249985792599283,5
0.6460139795206341,-0.1074193629507781,-1.1790791504962632,-2.0922561249770397,0.6674564170616794,0.7459113945060599,5
0.7911397565769649,-0.167533110624418,-1.112294431515224,-1.8479420385201448,0.4473557895743597,0.2923945672498494,5
0.9567758656741012,-0.2613871397121836,-0.9908518327101784,-1.7971294344656663,0.3132746945993078,0.1402757437482106,5
1.0438516489390772,-0.2331694571076878,-0.8136989120267767,-1.7628604699536174,0.0137085023868603,-0.0491628349396321,5
1.040562450470519,-0.2754959810144313,-0.6973529546340426,-1.6650757491634218,-0.3276385672677944,-0.2227810795905057,5
0.9192377890794404,-0.5038907013330941,-0.4042053704857609,-1.6018554190822685,-0.5070505535582914,-0.3404196050618434,5
0.7392813816859416,-0.7294244575125856,-0.0882092837348298,-1.5386352342069922,-0.8658745574580154,-0.5460842000969606,5
0.6077007616965157,-0.8040557556512122,0.0615283132838177,-1.5814712922210783,-1.210771708097473,-0.6324876999276359,5
0.3207399912083006,-0.7590726221866669,0.3073995092806694,-1.6287388303135937,-1.3718875247955058,-0.6454685037008152,5
0.0643521223408456,-0.4824217450264444,0.4882438956649654,-1.7271143938173843,-1.6179303558918492,-0.6345159519710453,5
-0.0734201165489114,-0.3452210941626409,0.5898268697125475,-1.7052531553320105,-1.6927536347055203,-0.5696119065204623,5
-0.3274857320397701,-0.2331694571076878,0.8522189584230351,-1.6668482821444033,-1.6780074431934593,-0.5233677984785253,5
-0.5142139253887772,-0.0432151735746461,1.0390396607684904,-1.5690637114002806,-1.5824302619005142,-0.4673880792989894,5
-0.6007095415985764,0.027942096680701,1.1188294537261982,-1.367585828163349,-1.5095185262652917,-0.4268230916001757,5
-0.7284192109083788,0.1823185826048453,1.3450166719295136,-1.0878210143240807,-1.4759299754524051,-0.260100887946082,5
-0.9095359524122316,0.3614353731751014,1.5494121487721673,-0.8984554405972227,-1.4439798908602035,-0.133132413708936,5
-1.0047372447614624,0.342215992301067,1.6170751025728425,-0.4426191592928655,-1.2771295788499557,0.093220330901207,5
-1.1047780180381663,0.5231736491411997,1.7495892190221454,0.1375898375164105,-0.979201785746628,0.2149153671055348,5
-0.9519119247784772,0.5432121233782639,1.9929999177948048,0.5665427075894425,-0.7337049743426817,0.1804351089522628,5
-0.8458745067757227,-0.0503709339976786,1.6905372856415366,1.0339004556902776,-0.2020228266646791,0.1110689369201,5
-0.789565014149899,-0.1002619274901933,1.502662701512519,0.9420241765566216,0.083889463970344,0.1244553897727269,5
-0.6616619558217043,-0.3450150645437193,1.1782312413054488,0.8279912424209902,0.1436934698400864,0.1487944010012953,5
-0.5502048898362992,-0.5227030480819419,1.0690925683505763,0.554430402919565,0.143420392882323,0.2214057723152102,5
-0.5109247269202193,-0.5660496698579802,1.1135557256207476,0.32016070067614,0.0677778787212572,0.2250566206764097,5
-0.4399097431171366,-0.6762604406430566,1.2395680249463228,0.2061277471797248,0.0325508616876858,0.1978780658917083,5
-0.3938562090896599,-0.7441463625589416,1.3172486146076927,-0.0931348278062267,-0.0245223656562133,0.1398700946687631,5
-0.3539958791184029,-0.671762964815378,1.4668105646624132,-0.2987486051981288,0.0407431927911109,0.1199932432526323,5
-0.3961784624662562,-0.6024465608299074,1.5202374760097173,-0.3333129959071712,0.1420550036194014,0.1139084871224044,5
-0.431976037895386,-0.6689003256386546,1.5234005610896175,-0.3217915291106931,0.4244172669588738,0.143115293950515,5
-0.4418452184569483,-0.7302418758380632,1.5058257865924192,-0.3406985637084828,0.700225732527171,0.2173492682283916,5
-0.3799242739859703,-0.7639804822146363,1.384033333588732,-0.4003738326678688,0.7881566695206529,0.2631877604217388,5
-0.3122000738073342,-0.712248622452245,1.3239275184245605,-0.5265190375920064,0.8321221760472807,0.3820431932543899,5
-0.1703634952195614,-0.535379732277052,1.2388654370906145,-0.4916592255261663,0.7608489066327432,0.5126625291450785,5
-0.0085967516461601,-0.3738458108923231,1.169971514813237,-0.4113044519105557,0.6980411123909591,0.5617461940354914,5
0.153361795789745,-0.2474826529913051,1.1052959991285358,-0.1705354168950366,0.5388368030785401,0.6201598076917126,5
0.2265056439510316,-0.2251946033216256,1.0713774186108411,0.0486677767909267,0.3659786503520529,0.6481496672814807,5
0.3453146629471217,-0.3028945702558974,1.0012539675859742,0.1290225939683003,0.2788668905426094,0.6518005222888518,5
0.4670261023749852,-0.2879683106281721,0.9269121099684318,0.1996284628095897,0.1172049288772583,0.6412536196385292,5
0.5463615694366031,-0.2233554120893014,0.8986171117548296,0.1458616548675272,-0.0092300157545213,0.6728943275894967,5
0.6703952622410629,-0.1127359321414863,0.8464197291550155,0.1003666400756018,-0.0703994108871852,0.704940737789284,5
0.6976789653932651,-0.0708181173974814,0.8156627939880088,-0.0251877463359199,-0.2061189899793395,0.7503735476723259,5
0.7270915329036713,0.0238516549782091,0.7262080988266724,-0.1191319798073549,-0.2803961148774836,0.7475339974700216,5
0.7079349239916121,0.1279284382470999,0.6237468899594547,-0.3590147362318936,-0.4426042259842573,0.7021011875869796,5
0.6456272014838494,0.1815011642793678,0.5831479658956797,-0.6036242101642145,-0.6110931742311553,0.6355745125877489,5
0.4726375542201395,0.2831240175342739,0.5567865240144882,-0.7096807821868983,-0.6894664624439598,0.594198200145354,5
0.2886199774404019,0.3831103591006727,0.5717251543235676,-0.879253004003419,-0.8262783001520202,0.5029269246536511,5
0.1837413083921128,0.4381135672025262,0.5812158492924816,-1.0260777910269154,-0.942609379450135,0.4274760031374318,5
-0.033946564614439,0.5794029847312695,0.6216376866631169,-1.09254777055343,-0.9996826112681386,0.4165234514076618,5
-0.2570525004477529,0.7298950585718433,0.6889493465359374,-1.150155080334841,-1.1181983151765695,0.4684466665003792,5
-0.3688947593140541,0.7940992479479753,0.7255040712417513,-1.116772379893185,-1.2096793957923146,0.5585009947537395,5
-0.6132861684176312,0.9079900762352526,0.7882460305940421,-1.0887072832346694,-1.2285217550931404,0.5921699547481163,5
-0.870449178514544,1.0668657130246275,0.8443105258586776,-1.030804547256265,-1.22114865933711,0.6327349623854446,5
-0.9642967477350284,1.158674521261147,0.8745390804046905,-0.9430641816383634,-1.2028524539518113,0.6335462671905111,5
-1.07188286304081,1.2480277244461295,0.904065047094995,-0.8810255369844006,-1.1815523975570104,0.6088016068824951,5
-1.1386401181274846,1.2562069328135612,0.8625878882115846,-0.7483810815714992,-1.0947136341714525,0.5390297857708847,5
-1.1618610667375593,1.273587122455271,0.8525702523508892,-0.6192815807960551,-0.9800210210940228,0.467635368341484,5
-1.1964967229004466,1.3232737613664165,0.9330626331643056,-0.5542887177339203,-0.9144823812148306,0.4104387019236055,5
-1.201528007690424,1.2431215394557122,0.9483525574012392,-0.4600490629056876,-0.7380742146151055,0.2534521559303114,5
-1.213524467454302,1.1799391229864271,0.8372803281139558,-0.4349381798151482,-0.5900661947941178,0.1812464071111579,5
-1.2468064004884432,1.114917515284818,0.6578411174410765,-0.5238602357004362,-0.6602471519034971,0.2554804079737207,5
-1.2762189679988492,1.1511083766378234,0.5400899843369255,-0.5209060172922642,-0.7522742522116396,0.3220070231574076,5
-1.3340755727718117,1.203044590981584,0.4782262598042702,-0.202145594036103,-0.9406978362716866,0.3925900959047124,5
-1.4298586173321075,1.1044887314847711,0.393164178470324,0.2655075947823133,-1.0641289388421726,0.3605437322281258,5
-1.4023815251615133,0.7613840895158013,0.3729532597850064,0.4398066212301424,-1.0966251773499007,0.3406669273351957,5
-1.4468863618859629,0.343850828952022,0.2831458309666033,0.626808853143795,-1.12229447849123,0.3706849857990008,5
-1.487135055049893,0.2133989043860644,0.2279610102508157,0.6200141474168623,-1.156702331763076,0.4680410174209316,5
-1.5070652200355212,0.1483756216469027,0.2107375296814715,0.5757007938511479,-1.167079283002713,0.516719033231897,5
-1.4354700691772615,0.1954039759626941,0.2088054130782733,0.4785069157745473,-1.1302137326368915,0.5585009947537395,5
-1.3921255665631662,0.2604272587018557,0.1588928807387241,0.4545777277915901,-1.0439211902784251,0.5268602801566005,5
-1.3410423329016006,0.3178827217801416,0.0386798106811684,0.4643266567668908,-1.0007749235732966,0.4875122197576149,5
-1.38980331318657,0.1780237863209841,-0.0650109269335388,0.4938688698897862,-0.9155746935199888,0.3978635472298736,5
-1.431600703653527,0.0903054197869564,-0.0794226163508368,0.4439425299057008,-0.7943282110857145,0.3362047808151012,5
-1.464882636687668,-0.0006842950865333,-0.150073008267485,0.3751091795248052,-0.6952010919793051,0.3151109755144561,5
-1.359617189602594,0.1127978240380052,-0.380478633063476,0.1715633613108783,-0.4559850327075009,0.2611595083783294,5
-1.2338429956326036,0.1882482155396616,-0.512290161657071,-0.0281419695842878,-0.2784845716990352,0.1995006622094985,5
-0.9567498205500624,0.353257839845222,-0.6780202707683606,-0.072455284428435,-0.2298767479422201,0.1670486560996359,5
-0.7814379199097561,0.4368857646767577,-0.7035034778299164,-0.0458672945539075,-0.1643381259594453,0.0855130050378749,5
-0.755702914060581,0.4520180539234046,-0.7323268566645124,-0.0003722942825699,-0.0671224784458152,-0.0179277893604552,5
-0.7717637135224746,0.3947652703889359,-0.8365459749002135,-0.0074624213663002,-0.0157838806372614,-0.0775583502550192,5
-0.7673125957876742,0.3444655677336823,-0.8618535349978423,-0.0689102233066678,0.0382854956971355,-0.1988477240875563,5
-0.7678927628428511,0.3974235549842899,-0.8472661986166173,-0.1061334062268888,0.0423816590117959,-0.3331179016932729,5
-0.845099365546265,0.5010916290904419,-0.7957714038725114,-0.049116939159073,0.0188969824807831,-0.4750954317470075,5
-1.0161551226260517,0.5374868450248169,-0.7086001192422277,0.0099674822465218,-0.0024030783881221,-0.5412163978512469,5
-1.1088407725802936,0.5468921808804648,-0.6432220157018177,0.0888451781193197,-0.0384493262949839,-0.6835996168614582,5
-1.1951429997717005,0.6710074383864195,-0.6028001783311825,0.1369989899626194,-0.0439108788725658,-0.8154358534672886,5
-1.2201044495473063,0.7926687658783897,-0.6131691081197319,0.1922429095288659,-0.0441839603044336,-0.8661421213216633,5
-1.2855063963493465,0.962380220592998,-0.5940135109471896,0.3260691423326799,-0.0439108788725658,-0.9294235372235984,5
-1.2976978302875046,1.1003999648198313,-0.5734498586048051,0.4968230882979582,-0.0321685383700072,-1.000006656494104,5
-1.2824105868991804,1.2531399390554685,-0.4934844186831701,0.6120377514225432,-0.0075915495338363,-1.0738350282157336,5
-1.270027349098518,1.2122455722558625,-0.4330273095911444,0.7361150358902728,0.1327703557367139,-1.3078950455198364,5
-1.22997204495298,1.2699070649530702,-0.366066943646178,0.6383303199402731,0.3539632642104612,-1.4831358997808433,5
-1.2139112454910868,1.3455618110360958,-0.3920785313287278,0.5700877735514056,0.4752097108519007,-1.5107201036449922,5
-1.1895315479265465,1.4275548992166769,-0.421253204091178,0.5266607227776513,0.701864198747856,-1.4673155458053595,5
-1.1632147898663057,1.7385574464975802,-0.4237137013153701,0.7638846434292482,0.9096762289126906,-1.4316183337675734,5
-1.371808623540753,1.8649206043985984,-0.3853996275118601,0.9293210243329532,0.997334156059974,-1.4961167035540226,5
-1.451144090602371,1.7702508320229078,-0.3474382873654169,0.9742251867308914,1.0852651601650207,-1.7857508840046157,5
-1.3532321816838706,1.6492025682750455,-0.1709865148085111,0.8262187094400086,1.090180558827076,-1.8956821700128508,5
-1.379355550725719,1.8121669717293605,0.0154814538798774,0.525479032510265,1.0156303614452726,-1.92894548092778,5
-1.5701464986168532,1.8035790541991896,0.0124940157639041,0.3216378123003239,0.8225644556809341,-2.0275184597880536,5
-1.8344680727060592,1.6954135042653595,0.1081006738503268,0.2714160364388532,0.7032295880107775,-2.1366383412986494,5
-1.6185207008650375,1.8446794506177169,0.4864874260256944,0.2678709704768901,0.3730786691503199,-2.2680689753482333,5
-1.5463453829516014,2.06837066548978,0.6536227108484008,0.2022872598609641,-0.0684878632346325,-2.377594306553131,5
-1.9432145221221948,2.269572826185898,0.5726033891432032,0.2028781025745593,-0.2203190275758734,-2.5382317540769965,5
-2.077890951561786,1.7835405799621256,0.4040614888798673,0.5115941948594059,-0.1864573998052236,-2.814885137400581,5
-1.8108603460591992,1.5933819418477146,0.407400220923695,0.8483753644419842,-0.0160569575950248,-2.5037514959237246,5
-1.3878694230026467,1.7976494212643737,0.6256790065626529,1.0448310700927683,-0.0602955366053117,-2.215740111176068,5
-1.2539665496366244,2.347679827245356,0.7430788457389499,1.4791016504332508,-0.3134385296712605,-1.865258309607653,5
-1.1846936521549611,2.502057988207053,0.6704948974898909,1.8333126171443412,-0.4174810787584552,-1.863230057564244,5
-1.1732773594462602,2.073278525517749,0.5652218974706271,2.06344644459358,-0.336103975328983,-1.8851352673625283,5
-0.990418531620988,1.3026222233852442,0.6829730305747782,2.5963880823975893,0.0208085256592316,-1.754110176053648,5
-0.8164619392653165,1.1251402694659431,0.7168930508216853,2.7990476510617106,0.3643401841313679,-1.3594126115331062,5
-0.4273331162980818,0.9280285504723166,0.7186509601901689,2.7597565138037106,0.4356134490718011,-1.1630780583101987,5
-0.3031060344752296,0.8491024560498289,0.7555569788238372,2.6315433158202266,0.4017518213011513,-0.9286122390647034,5
-0.0455562463415323,0.6724379204560053,1.0188287420831728,2.48914985398889,0.3932864132399627,-0.8300392602044298,5
0.2977140167725065,0.4493597693280506,1.2900074981776533,2.435382886320363,0.4533635005415729,-0.7594561409339243,5
0.4836670688920558,0.3448742768964211,1.356089629302984,2.2179522110947936,0.5568599315060753,-0.534725999287743,5
0.6545278517975617,0.2029701205860175,1.3488837845943351,2.0291774800815308,0.5565868545483118,-0.4073518892634925,5
0.7516662046424925,-0.1519937872525846,1.3142611764917194,1.7169163073141334,0.5432060478250682,-0.2568556886643301,5
0.8662174949221747,-0.3452210941626409,1.298442871633792,1.2477861375568222,0.5473022111397287,-0.2227810795905057,5
1.1289919568642417,-0.3202747598976073,1.2912384666543557,0.9860420700439712,0.5524906867595472,-0.2166963301064494,5
1.2849538595740964,-0.2881726652095414,1.223398426160541,0.7411372134764199,0.5492137543181771,-0.1335380627883836,5
1.2650221094325795,-0.2871508923026945,1.1803404446017869,0.6965284724352793,0.5265483086604545,0.0319671803350243,5
1.1849130862973922,-0.2542297042515989,1.1095144057212114,0.6622595079232303,0.5391098845104079,0.082267805756123,5
1.269086449130595,-0.3429715187300256,1.011798544338451,0.5689060832840193,0.5781600236937109,0.1033615844720819,5
1.3108822544416638,-0.3656682775624437,0.9873692190604576,0.4613724335185229,0.5303713994914558,0.1053898365154912,5
1.2835985512894617,-0.2593419188609376,0.9719036478595968,0.427694316560265,0.4743904799786104,0.104172882630977,5
1.2189701605609913,-0.238486026298396,0.9580188993340802,0.4374432455355657,0.3703478906244767,0.0911920788577976,5
1.095323245793316,-0.1912533174012354,0.9267364630045049,0.4734847430285962,0.3252901120596299,0.0607683513760305,5
1.0345642205885803,-0.240531247149642,0.8887751228580615,0.5089353929678356,0.3048092865381193,0.0193920256412925,5
0.9738036102279564,-0.3444020007996111,0.7733074002849627,0.515139260821369,0.324743958144103,0.0526553432023933,5
0.9492305236450236,-0.2849013168700792,0.7631141174603403,0.4584182151103508,0.3373055295199519,0.1013333324286726,5
0.9939287493878656,-0.3024858610931586,0.7153107884171289,0.4011063218455417,0.3550555765156193,0.1252666945777935,5
0.9714829420072484,-0.3378593041206867,0.6805125333505861,0.3700870019386582,0.3801786879485869,0.1763786048654443,5
0.9488421604523506,-0.2910353043862648,0.6615325831419708,0.3337501169702013,0.4050287537425213,0.2047741135346598,5
0.9672252132908402,-0.3082111394466055,0.6511636533534213,0.2838237818263118,0.4484481018795178,0.2481786780204639,5
0.985414877110938,-0.4396865119569622,0.6061721154622561,0.2587128842151847,0.4607365962976034,0.2822533136789745,5
0.8867294121188686,-0.4063582897806799,0.5747125924395411,0.1612236041425701,0.4858597390493012,0.365005885394392,5
0.8110699215625934,-0.4124922772968656,0.5277874982159652,0.0997757973620066,0.5778869422618431,0.4550602136477523,5
0.7619221632408395,-0.3204791144789768,0.3502818438754967,0.0681656395817239,0.6409678805729555,0.5008986726102418,5
0.8000404068906771,-0.1824610452896956,0.1708426332026175,0.0341920915862766,0.7499258014775793,0.551199291385169,5
0.7986866837619309,-0.1115081296157177,0.0791030877810162,0.0220797917565951,0.7927989912249446,0.5962264521887634,5
0.886342634082084,0.0185367608250532,-0.0810034390261808,0.0265111169487551,0.7938913035301027,0.6165089593305132,5
0.936458922651688,0.0091297499318532,-0.1159773410566507,0.0495540408613195,0.7862451263422044,0.6266502129013881,5
0.967031824272448,0.0306003812760551,-0.2096518825398752,0.0436455992047796,0.8078182641688731,0.642470566876872,5
1.0266305153668298,0.1320188799495918,-0.3483165221850524,0.0406913807966076,0.8329414069205711,0.6270558619808357,5
1.0864210103237153,0.1528747725121334,-0.4274037272870519,0.0430547564911844,0.8859184709498099,0.534161983525171,5
1.2628948302302638,0.1892699884465084,-0.5553481432158253,0.0480769292371356,0.9083108396497688,0.3917787910996457,5
1.5001260901856597,0.1168865907029449,-0.6861043502966451,0.0401005332428165,0.887556937170495,0.3187618238756557,5
1.602874309719856,0.0927593498009411,-0.7390057604813801,0.0197164112218224,0.7589373634542947,0.2246509715969622,5
1.6589888281713991,0.122203159893653,-0.8061417733902736,0.0401005332428165,0.6734641235547881,0.2108588696648877,5
1.5645610918957378,0.2328226398414682,-0.8551746311809747,0.122818721274571,0.5235444576509524,0.1792181550677487,5
1.5297304615585696,0.276988354980536,-0.8878636829511796,0.1706770924002895,0.4372519152924861,0.0757774005464476,5
1.605389952114845,0.2890536504690901,-0.919498852937822,0.1860390465155283,0.4042095183951266,0.0185807208362259,5
1.824819911442816,0.1702549621538434,-0.8941912928401932,0.2442371990105346,0.283509212246901,-0.0114373841507798,5
1.9207963450215044,0.1377441583030386,-0.8495510488768822,0.2244439197031357,0.082250997749659,0.1053898365154912,5
1.9221500681502504,0.2150337410370194,-0.7035034778299164,0.1854481989617372,-0.0122338712381279,0.1942272108843373,5
1.811661532412696,0.3209513905757867,-0.56677239451715,0.0770282948062399,-0.1127264422449193,0.3597324340692307,5
1.7642542752564727,0.3851555799519186,-0.5010415573196734,-0.0408451169677605,-0.0843263715259558,0.4643901624135605,5
1.7319392873142934,0.533806787522616,-0.4180886792820651,-0.0946119394304107,-0.0277992980975834,0.4875122197576149,5
1.8064368586043265,0.6454480403772779,-0.4511290249801242,-0.216621279240753,0.1215741691496821,0.4806161721146634,5
1.8581018444769573,0.6720292112932664,-0.5064909323890513,-0.2804324375149138,0.2414552533728261,0.4631732151752179,5
1.8948663649980488,0.7726302916413257,-0.6126421672279506,-0.2615254222779078,0.273132261007264,0.4599280158934659,5
1.8567465361923223,0.8754792723844479,-0.6933101950052941,-0.1793980817999444,0.2876053934579787,0.397052242424807,5
1.8412674889414944,0.8832497715891409,-0.7180908142111415,-0.0780682998879814,0.2635745451150217,0.2607538592988819,5
1.83468750684849,0.839697120194181,-0.7579857106899954,-0.0538436905482266,0.2439129504668014,0.1844916063929099,5
1.837589927280264,0.8247708605664557,-0.7832932707876242,-0.0730461319822262,0.1953051311840907,0.0481931966822987,5
1.822110880029435,0.81863687305027,-0.8184428197820213,-0.0384817412731837,0.1453319360607715,-0.052408034221384,5
1.7892157250320788,0.7930774750411285,-0.8316249804518294,0.006126994927761,0.1262164908539738,-0.0816148476956662,5
1.7836042731869244,0.7440038998740912,-0.8481444334362529,0.0327149799620926,0.0915356277359292,-0.0925673994254363,5
1.7896025030688631,0.7065852359953172,-0.9024510193324048,-0.0154388173606193,0.0696894218997057,-0.0787752974933618,5
1.7594163794848878,0.8212951576456241,-0.962205540568722,-0.137448142650374,0.0183508240911519,-0.0390215946611002,5
1.7363904050490937,0.8942916191332957,-0.9934879768982976,-0.1383344067207668,-0.0261608318768984,-0.0256351418084733,5
1.707751393612257,1.006545935732066,-1.0590431671318472,-0.0889989191306684,-0.0439108788725658,-0.0317198912925296,5
1.7089133128784992,0.9836448223182784,-1.1799573853158989,-0.0030310913339443,-0.076134044896635,-0.0536249881058982,5
1.7069778375386873,0.9646297960256134,-1.2405901413718516,-0.0080532689200913,-0.1116341299397612,-0.0994634537145592,5
1.695174766793202,0.8799784232496785,-1.3094840636492286,-0.0299145025652694,-0.1389418973017753,-0.122585504412442,5
1.6390586631857706,0.8184325184689006,-1.2752127494744674,-0.1235633001593191,-0.2208651859655047,-0.1351606591061738,5
1.5984231919850558,0.8065732525992682,-1.229869917655448,-0.2458680468058713,-0.297873102811805,-0.1079821043214725,5
1.526054485053227,0.775492930818049,-1.1590438787748727,-0.3008165595359079,-0.3270924088781632,-0.09743520167115,5
1.4856124028709046,0.6871598255023611,-1.1040347050230124,-0.4003738326678688,-0.3904463928283088,-0.1185290003256234,5
1.4676177132250878,0.6724379204560053,-1.075386973152343,-0.4916592255261663,-0.4628119700739002,-0.1793765217508731,5
1.5008996462592288,0.6677360900469574,-1.0235408844803835,-0.5232693929868408,-0.5133313370091637,-0.221564132352163,5
1.5337948012565854,0.613345945689212,-0.92477114131406,-0.5708323524361536,-0.6875549192655114,-0.298637656832344,5
1.506317709085991,0.5998501681310723,-0.8477931395083986,-0.6370069057656749,-0.9071092854588,-0.3465043545458997,5
1.395249006293259,0.6194799332053977,-0.6433976626657448,-0.6638903557185671,-1.0084210962870903,-0.3704377166950207,5
1.2056183925124786,0.6943172609629459,-0.3730971413908999,-0.6491192491571194,-1.136494516087764,-0.3972106356926176,5
1.1613069448064213,0.6879789188653909,-0.2391778492301797,-0.4618215958866692,-1.1105521379886714,-0.5184999962328116,5
1.188977425995408,0.4955707053183644,-0.0565755534774,-0.3770354825583109,-1.0652212466732265,-0.5898944136622123,5
1.27392434490218,0.4033531879191062,0.0870115203453736,-0.2423229808439082,-0.95080171055356,-0.6803544175797063,5
1.30352871627509,0.3090904496686019,0.111616492587294,-0.1835340001558945,-0.8699707252467802,-0.6706188130882789,5
1.2634749972854409,0.1275197290843611,0.1353417902803664,-0.2172121219543483,-0.863963014279567,-0.6207238500389708,5
1.2089075909810365,0.1896786976092471,0.2655710564694047,-0.2993394527519199,-0.8961861803036362,-0.5700175622460815,5
1.1649829213117635,0.1729132467491975,0.3207558771851923,-0.2381870721683499,-0.923493943191546,-0.658043658394547,5
1.0854540652317537,0.1612583354609343,0.3894741524986422,-0.2124853657249988,-0.9218554769708608,-0.6657510108425652,5
1.0842937311213996,0.2262799431625438,0.4186473855318799,-0.1084967819214656,-0.8773438210028106,-0.5992243690741921,5
1.0800360024049918,0.1913152092977544,0.407400220923695,0.0888451781193197,-0.8115321041658551,-0.5886774664238696,5
0.9614203724272936,-0.0088635034539648,0.43551957217337,0.1969696609180194,-0.7814935627521021,-0.6138277957498478,5
0.7855283047318106,-0.326408747413793,0.5446596848574553,0.3098209289872441,-0.7544588768219558,-0.660477559517404,5
0.7681137821411707,-0.4865105116913842,0.5987906237896801,0.2268072953977125,-0.7730281546909135,-0.6673736138065269,5
0.7746921790782867,-0.6674681685315167,0.6269099750393552,0.1195690766694055,-0.7853166491089991,-0.6434402583035775,5
0.717222352342109,-0.5584852002722088,0.5831479658956797,-0.1601956452061407,-0.8123513395132497,-0.5286412498036867,5
0.6998078297514692,-0.4292577281569152,0.5736572709267659,-0.3096792244408157,-0.9057438961958786,-0.3748998632151153,5
0.6723307375808746,-0.1209134654713656,0.5232177976954353,-0.2786599045339323,-0.9901248953758962,-0.2998546040706867,5
0.4333573913040595,-0.0685685419648661,0.581038762599342,-0.0975661626787786,-1.2238794378629532,-0.1939799218418426,5
0.1976732434958024,-0.1319553130155207,0.6819191487912156,-0.0110074873282633,-1.4936800224480726,-0.2239980334750199,5
-0.2171905853206074,-0.2493235192611816,0.8474736109385781,-0.1457199600014906,-1.6179303558918492,-0.2799777460083844,5
-0.4114657058545806,-0.0319689714491217,1.0648741617579005,-0.7079082492059168,-1.8623348594647413,-0.2747042946832231,5
-0.6092234138755039,0.2890536504690901,1.3263880156487524,-0.8000799496963702,-1.9884967405610707,-0.0978408507505975,5
-1.0902659158792998,0.695543388451162,1.9485367605246335,-0.5921027482079323,-1.9243234899448003,-0.0406441909788904,5
-1.2069460705171862,0.4413849155419883,2.152403856746294,-0.3149968233837604,-1.5518455665712343,0.0193920256412925,5
-1.2055907622325512,0.396401782077443,2.158380172707453,-0.4219396110748779,-1.0564827616542745,0.0648248488166775,5
-1.1421227056144343,0.5789942755685308,2.1350047292130223,-0.4603444842624852,-0.8402052607907907,0.071315254026353,5
-1.0831057667311186,0.6926807492744387,2.1304350286924927,-0.3474932742756114,-0.4761927767971438,0.0559005491303168,5
-0.9296595064162524,0.6407462099682302,1.997920912243189,-0.2237113918038957,-0.2134920902094742,0.071315254026353,5
-0.7851154815709871,0.5027264657413969,1.8792915443194027,-0.2180983860247411,-0.1244687827474779,0.0980881331469206,5
-0.7212590617601975,0.5086560986762131,1.8499412245930251,-0.2494131127678345,5.4623179957571646e-05,0.1492000500807429,5
-0.6022566537457149,0.5607966676013433,1.8302572467994889,-0.2517764884624113,0.0685971095945476,0.182057705270053,5
-0.4590663520291959,0.6311348444936608,1.7995017513616949,-0.2316877877982148,0.0912625507781658,0.1982837149711559,5
-0.3880513682261133,0.6299087170054445,1.7604850897024762,-0.1619681781871223,0.1458780899762983,0.2185662221129057,5
-0.2785313627364085,0.5836977810151307,1.7121548197674836,-0.1356756096693924,0.174551246601234,0.2177549173078392,5
-0.2448610665095943,0.5333980783598773,1.6972161894584044,-0.106724248940484,0.2193359616306305,0.2063967164986215,5
-0.2311225204242969,0.5119274470156753,1.6792901210333515,-0.1306534320832453,0.2387244793210872,0.2051797626141074,5
-0.1974538093533712,0.5632505976153278,1.6536312670078686,-0.1569460006009752,0.2308052251754256,0.213698419867192,5
-0.1674610747877881,0.6368601228471076,1.658375174763113,-0.1619681781871223,0.180832012155689,0.2404713255724459,5
-0.1635917092640532,0.6286809144796761,1.6757743022963842,-0.1120418478834287,0.1349549758729258,0.2522352020457972,5
-0.1515936643442869,0.593307471452148,1.7132087015510462,-0.0807271017795517,0.1333165096522408,0.2485843536845977,5
-0.1701701062011691,0.5409625479456486,1.734650588713066,-0.0340504112408277,0.1693627709814155,0.2360091724061798,5
-0.1707502732563461,0.5295119912387547,1.7299052412286091,-0.0508894672998587,0.2127821012219947,0.2518295529663497,5
-0.1432731810857516,0.5671350096988983,1.7337723538934309,-0.063001776809932,0.2250705956400802,0.2692725099057951,5
-0.1082507468860796,0.6084380856612426,1.7420320803856424,-0.053548269191429,0.2504668153495415,0.296856713769944,5
-0.0780646233021041,0.6155955211218274,1.7330683263085096,-0.0216426852141527,0.2990746570027738,0.3065923182613714,5
-0.0093718928756178,0.6053710919031499,1.6935261634867225,-0.0092349543472818,0.3274747321958418,0.3126770743915993,5
0.0229430950665615,0.5781768572430532,1.642031368742617,0.0297607615539206,0.3807248418641138,0.324846573359712,5
0.0430666490705824,0.5591601559128361,1.627970973253173,0.0687564822953191,0.4260557331795588,0.3203844268396174,5
0.1001496977699754,0.5094735170016906,1.5868465480268297,0.0669839493143375,0.4440788571329897,0.3167335718322464,5
0.154910493092772,0.4610146806163137,1.5406240416589618,0.0436455992047796,0.4640135287389734,0.3167335718322464,5
0.1771629114549969,0.4379092126211569,1.5221710323421278,0.0442364419183748,0.4798520325561923,0.3321482767282825,5
0.1912882355770788,0.391698276630843,1.4857905148710286,0.0483723554341291,0.4885905175751443,0.3495912336677281,5
0.2061887009286184,0.4117367508679071,1.4622408641418834,0.0693473298491102,0.4989674688147814,0.3865053397744845,5
0.2266990329694239,0.4211420867235548,1.4527501691729696,0.1364081472490242,0.5150790495897638,0.4031369985550349,5
0.267527893188531,0.3927200495376899,1.4103947754699235,0.1789489145916021,0.5232713806931889,0.4096273971185388,5
0.2895869225323635,0.3610266640123626,1.3915904722252352,0.2578266153045959,0.5189021359466607,0.4169291004871094,5
0.3172574037213503,0.2624708045155495,1.3959830860526254,0.3124797260386185,0.4907751377113563,0.4518150143660003,5
0.3402833781571445,0.2291425823392672,1.3963358197096922,0.3464532691938699,0.4784866432932707,0.4871065706781673,5
0.3549904544902918,0.2268930069066518,1.3748939325476723,0.4498509715622407,0.4776674079458761,0.5528218877029591,5
0.4056869101150728,0.1545096091630883,1.305473069378514,0.5228202354588904,0.4861328160070646,0.5686422483246144,5
0.4443869059759758,0.0062671107551297,1.2462469287631903,0.7027323402888127,0.4976020795518598,0.5962264521887634,5
0.4796043143499286,-0.071635535722959,1.2065276792482635,0.831831729739751,0.5249098424397696,0.6538287676860896,5
0.5235289840192013,-0.250549646749398,1.1427303983831976,0.8209011104970639,0.5402021923414616,0.6842525815680867,5
0.6554963820454118,-0.2245815395775175,1.068741274422722,0.7050957159833895,0.5429329708673047,0.7475339974700216,5
0.7361855722357759,-0.121117820052735,1.0165438918229075,0.672599284452322,0.5281867748811396,0.8582764819445793,5
0.877247009594091,0.1831360009303228,0.9135543023346964,0.7269569496285675,0.5240906115664793,0.9106052464241712,5
0.9111106948392976,0.2328226398414682,0.8891264167859158,0.9467509279457752,0.5142598142423691,0.923991699276798,5
0.9867686002396842,0.2493854111577006,0.7993189879675126,1.0365592527416518,0.4970559256363329,0.884238089490938,5
1.1413751946649042,0.2487723474135925,0.6432537810598513,1.0652151969539587,0.4476288665321232,0.8335318216365634,5
1.1920732354455736,0.2806700875202892,0.5824453780399713,1.0477852933411365,0.3665248042675798,0.820551017863384,5
1.3313925864824692,0.3890399920354889,0.4926379492215682,1.0717144861642895,0.3192824010924167,0.831909225318773,5
1.4145990042237109,0.4751235219185615,0.4371018345779265,1.077918349177627,0.2034974578134115,0.8659838343925975,5
1.4500098016160556,0.5280815091691691,0.4341143964619531,1.016175125880462,0.0560355382186987,0.8647668805080833,5
1.4707135226752537,0.5879909022614398,0.4395623318021185,0.9949047349488792,-0.0163300345527882,0.8651725295875308,5
1.4358828923380853,0.611711109038257,0.4221632042688472,0.9632945674882044,-0.1779920096404523,0.8485408774531519,5
1.358482900616279,0.6452436857959086,0.3409667958705099,0.9582723947422532,-0.2615537555766581,0.823796217145136,5
1.30352871627509,0.6871598255023611,0.226731481503326,0.978951938120045,-0.3877156143024657,0.732524941653433,5
1.273535981709507,0.6562855333400636,0.1849030286920613,1.0548754252650627,-0.4835658725531742,0.5897360536252594,5
1.1518245422816435,0.4058071179330909,0.2337616792480479,1.0944619887200564,-0.5422775705918628,0.498870427213004,5
1.093774548490289,0.2759665820736891,0.3522154002079074,1.030650811085112,-0.7301549649435483,0.3382330262123388,5
1.078488890257853,0.3503952006684986,0.3743598752256358,0.8661006942517999,-0.9286824188113644,0.2668386087829383,5
1.062814868832744,0.6346105474144923,0.2476449880443521,0.8596014050414689,-0.9876671938078164,0.2295187738426758,5
1.019276977200256,0.6462654587027555,0.1089803483991749,1.091803186828486,-1.0045980099301937,0.1151254410069186,5
0.8913739188720614,0.5107013195274591,-0.1472612171154387,1.26255724411827,-1.0076018654138,0.0404858442342806,5
0.7870770020348375,0.4389309855280037,0.0204024483282615,1.587225997706465,-1.2091332418767882,-0.0657944870740109,5
0.6454338124654572,0.4360683463512802,0.1611762912697765,1.798157383721704,-1.6018187751168669,-0.1173120530872808,5
0.3075816121781803,0.2759665820736891,0.2639902337940608,1.802293297237458,-1.759384582415766,-0.2085833285789837,5
0.1988351627620448,0.1902934363909075,0.2457114317119413,1.5774770687311648,-1.8992003427189976,-0.549329406024884,5
0.0955051910167827,0.0588163888429986,0.3023028678683582,1.4318341123407357,-1.8320232410932251,-0.9497060443653482,5
-0.193391054811244,-0.4241471885851288,0.5402656313008525,1.376294756897104,-1.7992539211536291,-1.0851932356711227,5
-0.6492771328651532,-1.274547003465599,0.9778785240915436,0.97245265374991,-1.8781733632819604,-1.058420329965869,5
-0.7398355036170798,-1.6221507962997992,1.1590756441329064,0.4259217835792835,-1.7765884754959065,-0.7270041281778902,5
-0.6943637218006683,-1.9331533435807031,1.3541560729705735,0.2548723968964239,-1.5635879025996886,-0.521339546435116,5
-0.6945571108190608,-1.806379801479394,1.4515206404254797,0.0749603404684607,-0.9745594685164408,-0.1814047737942824,5
-0.6502456631130034,-1.6170385816904609,1.4952812098399426,-0.0180976192521896,-0.4865697280367808,-0.0544362862647933,5
-0.4433923306040869,-1.207275820331374,1.5799919972460346,-0.0517757362104474,-0.3150769958919455,-0.0678227391174202,5
-0.1684296050356382,-0.9246953102363352,1.5824524944702263,-0.0443901829297236,-0.0788648189483738,-0.1128498999210146,5
-0.0447826902679629,-0.8345230136883233,1.5604836664164254,0.1284317415743133,0.0350085632557655,-0.0678227391174202,5
0.1076966249549414,-0.7789067418423616,1.4754215850824792,0.2622579501771478,0.0702355758152326,-0.019956034757693,5
0.1653598407095113,-0.8547658425067566,1.271026108239825,0.5065720172732588,0.1349549758729258,0.0587400993326212,5
0.1874188700533439,-0.9357371577804904,1.1894798456428464,0.6164690814548992,0.1865666461651387,0.0408914933137282,5
0.2116067637553804,-1.058828967342046,1.067159012018165,0.5884039460748164,0.2092320918228612,-0.0017017796593524,5
0.2404375790547211,-1.1079025425090834,0.9813943428285108,0.392834504494425,0.2411821764150626,-0.1059538589242347,5
0.25514307023198,-1.1079025425090834,0.948176910437312,0.1248866756123502,0.2482821952133296,-0.1935742727623951,5
0.2727525669969006,-1.0449244806211675,0.8994953465744651,0.0016956600552092,0.2482821952133296,-0.2256206297928101,5
0.2806862722186513,-0.8934106338737471,0.8977374372059814,-0.1596048024925455,0.2264359804288974,-0.2398183874505036,5
0.2822333843657899,-0.8005800527303808,0.8961566145306376,-0.1734896401434045,0.1846551029866903,-0.2122341769401832,5
0.2967454865246564,-0.6991615540568441,0.8661022672193393,-0.1433565843069139,0.1663589154978089,-0.2016872742898607,5
0.3315761168618246,-0.6586758964199771,0.8443105258586776,-0.0562070662428034,0.1289472693798169,-0.1720748183823025,5
0.3470567492685412,-0.638637422182913,0.8351711248176179,0.0380325789050373,0.0915356277359292,-0.1306985125860792,5
0.3520880340585184,-0.6650142385175322,0.8091609768642806,0.0728923861306815,0.0797932961815793,-0.1136612047260813,5
0.3478303053421104,-0.6911867002707819,0.7996702818953668,0.0932765081516756,0.0650471001954141,-0.0795865956522569,5
0.3553772325270764,-0.6821900735778728,0.8026577200113401,0.0817550461953934,0.0467508992842198,-0.0422667939428521,5
0.3729851441361086,-0.6590846055827159,0.8139063243487377,0.0743694929146696,0.0407431927911109,-0.0317198912925296,5
0.4116851399970117,-0.6308685980157724,0.8117971210523998,0.0666885279575399,0.0456585869790616,-0.023606889765064,5
0.4261988273117666,-0.62698251089465,0.8112701801606185,0.090026868386706,0.0743317436039973,-0.023606889765064,5
0.4364532007542251,-0.6639924656106853,0.7894769990707444,0.1107064166046936,0.1030048912807244,-0.0313142422130821,5
0.4416778745625948,-0.7020241932335675,0.77682321902193,0.1458616548675272,0.1898435786065088,-0.0564645383082026,5
0.4385820651124292,-0.8093723248419203,0.7699686682411352,0.1579739595374046,0.2843284475942957,-0.0662001361534585,5
0.3981399829301068,-0.9721323737148656,0.8225173447688036,0.1538380508618463,0.3326632078156603,-0.0564645383082026,5
0.3770494838341243,-1.054944555258476,0.8731324649640612,0.1195690766694055,0.4519981112786513,0.0222315758435969,5
0.3520880340585184,-1.0872510045279111,0.9669826534112128,0.1237049853449638,0.5298252411018246,0.0887582043196269,5
0.3484104723972874,-1.183965997754848,1.0887765461441123,0.2519181736480561,0.7024103571374873,0.2218114213946577,5
0.3658265801438157,-1.2062540474245271,1.1114479620536222,0.3248874569054895,0.8539683863576085,0.3670341374378012,5
0.4370333678094021,-1.2205672433081445,1.013555013977722,0.3240011879949007,0.9203262571100912,0.4469472121202866,5
0.4981807562068108,-1.2174985745124995,0.7552056848959829,0.3712686922060445,1.0412996581124974,0.6205654634173318,5
0.5597133374851158,-1.1900999852710334,0.6128495795499114,0.4483738599380568,1.1289575852597808,0.7625430532866103,5
0.7816589392080757,-1.0193650826120262,0.2738322226908289,0.4977093572085469,1.1622731307005731,0.7949950593964727,5
1.0446252050126466,-1.025705099747133,-0.1212510691621015,0.6371486296728867,1.1737423897712638,0.7974289605193297,5
1.1189293872842871,-1.091339771192851,-0.3201971709353773,0.6918017210461257,1.0268265435582,0.9572550101917272,5
1.2178082412947486,-1.0105728105004863,-0.7040318584509103,0.6516243148775368,0.902849287072187,1.101260798935043,5
1.2294179230218418,-0.934509355254722,-0.9020997254045504,0.4548731491483878,0.6420601928781136,1.2854259528824106,5
1.2209040507449145,-0.8504710462228954,-1.1862849952049122,0.3275462539568638,0.5347406397638798,1.312604507667112,5
1.232126954435223,-0.7672518305540985,-1.3033321007241423,0.1570876954670118,0.3883710145779077,1.3255853114402911,5
1.255928070100475,-0.6936406302847664,-1.347621050759599,0.2090819704280928,0.2564745263167547,1.4383560479582582,5
1.3362304822540545,-0.3883633613573096,-1.3527176921719102,0.2161720975118231,0.162535829140912,1.5422025778362658,5
1.459684008003337,0.1569635391770731,-1.176969947199925,0.1511792538104719,-0.0548339840277297,1.6716049664886117,5
1.5436639818181477,0.3724772207192564,-1.0391835423743838,0.2031735287715528,-0.208030533157788,1.5872297452860318,5
1.6802743014416623,0.6384966345356148,-0.8390064721244055,0.2436463562969393,-0.2593691354404461,1.4951470652966892,5
1.7841844402421014,0.8951090374587732,-0.7082488253143735,0.2578266153045959,-0.3459347681789887,1.3097649574648074,5
1.8348808958668823,0.9748525502067386,-0.667651340979811,0.205241483109332,-0.4243080205989586,1.1389862630162382,5
1.8764833121595588,0.9865074614950018,-0.613873135704653,0.1789489145916021,-0.4570773405385547,1.035545481910251,5
1.8762899231411665,0.9478626701280112,-0.5375977217546998,0.1830848232671605,-0.5037736211169214,0.779174705420989,5
1.8933192528509104,0.9568592968209204,-0.3368937106129403,0.2675755491200924,-0.5144236493143218,0.513068178224526,5
1.9107337754415497,0.9568592968209204,-0.2437475497507095,0.3467486905506675,-0.5037736211169214,0.3917787910996457,5
1.8931258638325172,0.820271709701225,-0.2395291431580339,0.4941642912465838,-0.4944889821824424,0.2043684644552122,5
1.802954271117376,0.6151868119590885,-0.1725687772130675,0.525479032510265,-0.5035005441591579,0.156907402528761,5
1.6940128475269598,0.603327546089456,0.0133722505835396,0.5074582861838476,-0.5215236681125888,0.1394644455893155,5
1.6322868772302623,0.6143677185960589,0.132354352164393,0.4598953267345348,-0.5043197750324482,0.1512283021241522,5
1.439947232036101,0.6746874958886205,0.384201864122404,0.4782114944177498,-0.4595350421066344,0.1528508984419424,5
1.2983040424667205,0.7867391329435734,0.5281387921438194,0.4864833166090623,-0.2784845716990352,0.1272949399750313,5
1.2992725727145706,0.8918376891193109,0.5284900860716736,0.2214896964547678,-0.0586570703846267,0.1086350357972431,5
1.3019816041279515,1.0460098204620858,0.4182960916040257,0.0265111169487551,0.0347354862980021,0.1232384425343842,5
1.248187753897117,1.156220591247162,0.254675185789074,-0.3220869553076866,0.1868397231229022,0.1402757437482106,5
1.244511777391774,1.2874916091761497,0.1527409178136377,-0.5052486466604236,0.2862400086691615,0.0830791039150181,5
1.2528322606503093,1.5522832204667396,-0.0992822411083002,-0.4854553625128288,0.3211939487449695,0.016146819713369,5
1.3813170711895697,1.51343407451838,-0.2729207827839473,-0.2497085341246321,0.3498671008958008,-0.1899234244011956,5
1.439947232036101,1.4058815883286575,-0.3384745332882843,-0.0172113503416009,0.2346283115323226,-0.3781450691430388,5
1.5005128682224442,1.247210306120652,-0.4064902207460258,0.0566441776254417,0.1311318895160288,-0.4434547503807261,5
1.51328446921578,1.1868905288280904,-0.405961840125032,0.1136606350128656,-0.0824148283475073,-0.5083587426619367,5
1.5457912610204632,1.0803614905827672,-0.4038540765579066,0.0507357311287059,-0.286130744412829,-0.5395938015334566,5
1.4838719017053736,0.9981623727832648,-0.362025623746642,0.0143988171190736,-0.3849848402507268,-0.5643384551953011,5
1.4252417408588425,0.9433651943003328,-0.3057854815180794,-0.0810225231363493,-0.5458275799909963,-0.6069317481068963,5
1.3399080439152853,0.8247708605664557,-0.1975250433828421,-0.2260747674984725,-0.6668010167862373,-0.6166673459521522,5
1.345324521586159,0.6992251209909153,-0.0658891617531743,-0.2700926609858221,-0.7260587971547835,-0.604903496063487,5
1.346293051834009,0.6233660203265202,0.0175906571762152,-0.2783644783369388,-0.8219090554054921,-0.5189056453122592,5
1.2886298360794388,0.4761452948254084,0.1845517347642071,-0.2532536000865952,-0.8467591211994265,-0.4515677253235056,5
1.2667641957539988,0.4186881567095702,0.3418464704193579,-0.1938737766849863,-0.8713361145097017,-0.3278444503681116,5
1.2539925947606632,0.4025357695936287,0.4258532302405289,-0.1826477360855017,-0.9172131597406736,-0.2714590887552996,5
1.213163734541556,0.3626631757008698,0.5775243835915873,-0.1832385787990969,-0.94097091322945,-0.2592895897871869,5
1.179301634452238,0.2309834486091437,0.7226922800897051,-0.1534009346390121,-0.9868479629345264,-0.2325166840819331,5
1.1413751946649042,0.1236353170007909,0.8244509011012142,-0.1111555838130358,-1.0542981415180626,-0.1481414628793531,5
1.064943733190948,0.1191361661355602,0.9993204112535636,-0.1070196751374775,-1.0777828225231796,-0.084048748818523,5
1.0732642164494834,0.2704456583016116,1.190358080462482,-0.1551734676199937,-1.092255937077477,0.036429340147462,5
1.066104067301302,0.3542796127520689,1.2731353115361632,-0.1853065331368761,-1.1031790422326408,0.1049841874360436,5
0.9434240976255884,0.4309561317419415,1.356089629302984,-0.1318351223506317,-1.099355955875744,0.1281062447800979,5
0.8000404068906771,0.3896530557795971,1.3817484833284672,0.033896670229479,-1.047471199677559,0.1755673067065492,5
0.7539884580190889,0.367979744891578,1.4140862411708175,0.0968215741136387,-0.9751056224319676,0.1995006622094985,5
0.7121910675521317,0.4058071179330909,1.4819248419354196,0.0755511831820559,-0.9464324702811362,0.2027458614912505,5
0.6473692878052689,0.4123498146120152,1.482100488899347,0.0208981014892087,-0.9174862366984372,0.2173492682283916,5
0.6036380071543884,0.3927200495376899,1.4768282005231086,-0.0532528478346314,-0.9142093042570671,0.2822533136789745,5
0.5357188328014715,0.4552894022628668,1.4952812098399426,-0.1182457157369621,-0.9057438961958786,0.3232239770419218,5
0.4410977075074179,0.5976022677360092,1.5655803078287365,-0.2219388588229141,-0.8765245901295202,0.3787979873264664,5
0.3712446429705777,0.613345945689212,1.6079357015317826,-0.3389260307275012,-0.8366552513916572,0.3848827434566942,5
0.2303750094747665,0.6992251209909153,1.6578482338713316,-0.4455733777010375,-0.8120782625554863,0.3654115344738395,5
0.1787116087580239,0.8006436196644519,1.6806952967447684,-0.7362687720614258,-0.7593742710099065,0.335799125089482,5
0.1402050019155132,1.0652292013361202,1.6880767884173449,-0.9977172681714064,-0.6908318517068813,0.4299099042602887,5
0.105954538633522,1.4007693737193188,1.6161968677532068,-1.0887072832346694,-0.6479586574854117,0.4895404718010241,5
0.0974406663565944,1.550442354196863,1.59000963310673,-1.2051035930648777,-0.5575699204935548,0.5252376838388103,5
0.1411719470074748,1.8589909714637824,1.5873734889186104,-1.3025929651012145,-0.4649965946842164,0.4392398596722685,5
0.1920617916506481,2.184306714628303,1.6056508512715175,-1.292548614769116,-0.4213041695894564,0.3719019396835149,5
0.1767761334182122,2.297380124590103,1.6228743318408618,-1.1841286234900923,-0.327365490310031,0.2356035233267322,5
0.1078900139733337,2.5499037608483217,1.6219960970212262,-1.0443939635503263,-0.1779920096404523,0.1199932432526323,5
0.0479045448421674,2.7574425886044427,1.5132072782649957,-0.9690613239590996,-0.1050802650570211,0.0408914933137282,5
0.0372618082070358,2.830440725129667,1.4202367643666918,-0.8204640039546217,0.0027853972316963,-0.1461132108359439,5
0.0490648789525213,2.8551810297757787,1.390710797676387,-0.7430634826285545,0.0877125503272409,-0.344476109148662,5
0.0734461616729502,2.926336624993574,1.3068796848191433,-0.7209068227863829,0.1281280340324223,-0.4393982462939075,5
0.0701569632043922,2.9471941925936678,1.1740142744419857,-0.6789568836368125,0.2018589915927265,-0.6077430462657915,5
0.0867979297214628,2.9388106296448666,1.1021329140486351,-0.6180998905286688,0.2646668529460755,-0.7347114806259082,5
0.103825674275318,2.9167269345565563,0.9611834241431932,-0.5915119006541412,0.2851476963640034,-0.7910968488848917,5
0.1369142182910668,2.754579949427719,0.8907072394612596,-0.5147021542789265,0.2966169554346942,-0.905490181720649,5
0.1897411234299402,2.666044164568214,0.8601273909873925,-0.4946134487745341,0.2583860694952032,-0.983375004359725,5
0.2833953036320323,2.5145303178207934,0.7696173743132809,-0.4928409157935526,0.2201551969780251,-1.000412312219723,5
0.3327380361280669,2.4251754395982585,0.7047662116646524,-0.4987493574500926,0.1273088031591319,-0.9955445099740092,5
0.3453146629471217,2.364855662305697,0.6831486775387053,-0.4789560781426937,0.0628624800592022,-0.9756676519117068,5
0.4227146546689279,2.211093915163213,0.6038872652019912,-0.4715705248619698,0.0503009086833532,-0.9639037953768704,5
0.5293338248827478,2.151591556196129,0.5160119529867864,-0.4432100020064607,0.0478432071152736,-0.934291339469312,5
0.5879639857292795,2.163042112903023,0.4673303891239394,-0.3279953969642265,0.0284546983730254,-0.8998110813160403,5
0.6916807355113263,2.19003199298175,0.3736558476407148,-0.262116264991503,0.0046969404101448,-0.8758777258130908,5
0.72960717529866,2.2098661126374446,0.3416708234554308,-0.140402361058546,-0.0526493594174135,-0.8340957576450768,5
0.7982999057251463,2.171425675851824,0.3293683373344707,-0.1194274011641525,-0.0957956261225422,-0.824360159799821,5
0.8689265263355556,2.2611892632370973,0.3378037107906094,-0.1386298280775644,-0.1072648896673374,-0.8134076080700509,5
0.8782155398419409,2.3846897819613915,0.3065212744610339,-0.1271083661212822,-0.0987994816061488,-0.7647295922590854,5
0.890405388624211,2.36792265606379,0.2304215074750078,-0.1297671680128525,-0.0657570891828936,-0.7586448361288576,5
0.9517445808841236,2.2472847765162185,0.1929871082203459,-0.1938737766849863,-0.0632993920889183,-0.7910968488848917,5
0.985414877110938,2.3409327759850624,0.1668013133030815,-0.3613781119264703,-0.0911533044182506,-0.8227375568358593,5
0.9691606886306522,2.3654704010873573,0.099665300394188,-0.4263709411072339,-0.1124533652871559,-0.8113793560266417,5
0.9163353686476672,2.263438838669712,0.0885923430207176,-0.5383359209050862,-0.1626996597387603,-0.7724369447071037,5
0.8907921666609959,2.276524232027561,0.0564316718715065,-0.5897393676731597,-0.2208651859655047,-0.740390581030517,5
0.7969445974405115,2.3677183014824204,-0.051654559029016,-0.5779224843600799,-0.2539075828628642,-0.726192830018995,5
0.6667192857357204,2.2988122816972405,-0.086100080438492,-0.5365633879241046,-0.3038808093049138,-0.7318719304236039,5
0.6421446139968991,2.2597571061299595,-0.0690536865622873,-0.4999310477174789,-0.3494847775781223,-0.7704086926636943,5
0.6191186395611051,2.2078208917861986,-0.0590360507015921,-0.4715705248619698,-0.3879886957343335,-0.7923137961232344,5
0.6003488086858305,2.167949972930992,-0.0600899324851547,-0.429916007069197,-0.5021351548962363,-0.8089454549037848,5
0.5529415515296076,2.108651968545277,0.0096822246118578,-0.3912157464061634,-0.6364893939406165,-0.7622956911362286,5
0.4952783357750375,2.208435630567859,0.0747090342244134,-0.3672865535830102,-0.6919241595379352,-0.7298436783801945,5
0.4707036640362163,2.2325628714698627,0.0819148789330625,-0.336858076389722,-0.7443550025400822,-0.6856278689048675,5
0.3905946409010292,2.20332341595852,0.1369240526849229,-0.3353809502449504,-0.7569165739159311,-0.6754866153339926,5
0.2433399994864944,2.270594599092745,0.1685577829423526,-0.3223823766644842,-0.7743935439538352,-0.6909013202300287,5
0.1696159842700309,2.2552596303022807,0.1244459196000355,-0.3025890925168895,-0.7429896132771606,-0.7497205364424969,5
0.1343985758960781,2.1904407021444885,0.0205780952921886,-0.2813187015853067,-0.7132242159327361,-0.7874460005236922,5
0.1945774340456367,1.939349222993408,0.0453587144980361,-0.2632979504186934,-0.7025741877353356,-0.85194436366397,5
0.2253453098406776,1.8324098005477936,0.1311233836876907,-0.3294725037482146,-0.8208167475744383,-0.846265263259361,5
0.2530157910296645,1.787222312501879,0.3228650804815301,-0.3838301931254395,-0.9008284975338234,-0.7988042013329097,5
0.2452754748263061,1.806441693375913,0.5265579694684754,-0.4890004284747919,-1.018524970568964,-0.6454685037008152,5
0.2334708189249321,1.8634901223290128,0.6404419899078051,-0.5601971593904601,-1.0450135025835836,-0.4949722898093098,5
0.2882316142477288,2.0965883480942757,0.8149602061323002,-0.5681735553847792,-1.029448075724128,-0.4434547503807261,5
0.265979195885504,2.1192851069266934,0.9989691173257094,-0.4952042914881294,-1.017978812179333,-0.42804004548469,5
0.2510803156898528,2.138710517419649,1.075067444582523,-0.2703880823426197,-1.044467348668057,-0.5014626883728138,5
0.3215135472818698,2.3918472174219763,1.103011148868271,0.0516220000392946,-1.0414634931844502,-0.615044749634362,5
0.3131930640233346,2.2491256427860957,1.1400942541950785,0.2658030161391109,-1.0231672877991511,-0.6811657157386013,5
0.2727525669969006,2.058556620471393,1.2557361840028918,0.5774733268321295,-0.963363281929409,-0.7906911998054441,5
0.22553869885907,1.82954716137107,1.3599553022385928,0.5810183927940926,-0.9166670013510424,-0.8641138692782542,5
0.324610941887924,1.8935469961658329,1.1803404446017869,0.5434997836768781,-0.7743935439538352,-1.0129874602672833,5
0.3460882190206911,1.818300959245546,1.0936975405924965,0.6442387615968129,-0.6201047362078708,-1.0685615768905723,5
0.2982941838276834,1.5181359049274277,1.0690925683505763,0.6504426246101506,-0.5695853379538769,-1.0718067828184958,5
0.4484512456739914,1.490941670267331,1.063820279974338,0.5420226720526942,-0.4854774157316226,-1.006902710783227,5
0.5006963986017995,1.5289733978902131,1.0385112801474965,0.432125646592621,-0.4502503986980513,-0.846265263259361,5
0.4472893264077491,1.5627120042667866,1.039917895588126,0.4064239207884863,-0.4532542541816578,-0.7837951455163212,5
0.4312285269458555,1.457816127634866,1.0576683170492516,0.4052422353612959,-0.4505234756558146,-0.7298436783801945,5
0.4008490143434877,1.320411122189693,1.07524309154645,0.3647694029957135,-0.4696389119144037,-0.6896843663455146,5
0.3346719263119901,1.2052941664141996,1.1659287551844888,0.3124797260386185,-0.4914851266988359,-0.6665623156476318,5
0.3660199691622081,1.3743925573846998,1.3044191875949511,0.2528044425586447,-0.5406391043711778,-0.573668410607281,5
0.3292538634852282,1.3261364005431395,1.391414825261308,0.2714160364388532,-0.5646699392918219,-0.4552185736847051,5
0.1941906560088521,1.1327064140892664,1.5963372429957432,0.2572357725910007,-0.5616660838082153,-0.4174931428343674,5
0.1547171040743797,1.0717735730525968,1.6926464889378745,0.2064231685365225,-0.5220698220281157,-0.3748998632151153,5
0.1572327464693684,1.1543797249772856,1.7545102134705295,0.2265118740409148,-0.4554388743178697,-0.3282500994475592,5
