ax,ay,az,gx,gy,gz,label
-0.2348070158521036,0.0641425827089178,0.4933462550482353,0.0290698258757133,0.1341121211729433,0.1828378112502406,3
-0.2386802766900533,0.0542129070235231,0.5243222319332055,0.0327970981438298,0.1351313202748631,0.141126191901818,3
-0.2487571044766537,0.0430428691194065,0.5495631699519794,0.0452213356449061,0.1381889342792235,0.0899346181173936,3
-0.2580592800956643,0.0227734526435204,0.5608058010430047,0.0843576893711614,0.1402273324830631,-0.0010725654899786,3
-0.2530208662023641,-0.0041180069345024,0.5621836389613665,0.0974031270426647,0.1371697184787028,-0.0352002709916647,3
-0.2355816680196935,-0.0285253531072715,0.5601178219459784,0.1017516096591446,0.129016125663344,-0.0655360195699825,3
-0.1743492239364664,-0.0487947695831574,0.5594298428489519,0.1017516096591446,0.1167857030431043,-0.0958717060207191,3
-0.1383056745157748,-0.0549999696445766,0.5631009444240684,0.0992667682656912,0.1086320768305439,-0.1281034330607211,3
-0.1111769746302988,-0.0599648074872739,0.5672306987305361,0.0936758547745482,0.1086320768305439,-0.1546471936518801,3
-0.0968395599219536,-0.0612051697059955,0.5704431475743016,0.0849788997195248,0.1157665039411844,-0.1773989973196708,3
-0.0960649077543637,-0.0570706289769233,0.5718209854926634,0.0769031448349284,0.123920113455144,-0.1982548225257774,3
-0.1045892564018187,-0.0508654289155044,0.574574781605078,0.0756607241382017,0.1422657306869028,-0.2437583987975682,3
-0.116990040691189,-0.0504519748425971,0.5816876583896358,0.0837364790227981,0.1524577551033029,-0.2627182455419907,3
-0.1200918241655144,-0.0620320778518101,0.5917836576522837,0.0905698030327314,0.1646881777235427,-0.277886135363045,3
-0.108465692043734,-0.0736155698288336,0.5982085553398148,0.0955394959975746,0.1799761976495419,-0.2987419605691516,3
-0.061570662668852,-0.0885100833569259,0.584670780867726,0.098024337391028,0.1911874211678619,-0.3347656445325218,3
-0.0464585957929169,-0.0980263049694134,0.5738849227837428,0.0974031270426647,0.1932258193717015,-0.3802692518681032,3
-0.0410328558158218,-0.1104367050922515,0.565854740536483,0.0955394959975746,0.1891490229640222,-0.4257727970761034,3
-0.0418075079834117,-0.1249143755796257,0.5628716180583929,0.0955394959975746,0.1860914089596618,-0.4636924595011578,3
-0.0418075079834117,-0.1315330297139519,0.5594298428489519,0.0986455579173278,0.1911874211678619,-0.4807562967201055,3
-0.0398677027604713,-0.1393954350348107,0.5539222506241225,0.115418278034884,0.2288978714319002,-0.4902362200923167,3
-0.0418075079834117,-0.1534596514492777,0.5470387002052403,0.1259788844908702,0.2584547288805797,-0.494028177015685,3
-0.0518843357700121,-0.1683541649773698,0.5387791915923051,0.1371606911172834,0.2951459800426982,-0.495924155477369,3
-0.0553702705241669,-0.2299927115186532,0.5257000698515671,0.1433728149567897,0.333875662805858,-0.494028177015685,3
-0.0363817680063164,-0.2730156578756792,0.5169800287829723,0.1390243323403099,0.367509316662217,-0.494028177015685,3
-0.0084784159532505,-0.2866698091850497,0.5018350900268461,0.1210091813480906,0.390950929403575,-0.499716143464528,3
0.0236886978255256,-0.2742594090622116,0.4830209294199121,0.0974031270426647,0.4021621529218949,-0.5110920452984233,3
0.0469409620690863,-0.2535731495456076,0.4653515209170468,0.0769031448349284,0.3970661407136949,-0.522467916068528,3
0.0527540281299765,-0.231646527810282,0.4488306239668677,0.0657213280305788,0.350182898532378,-0.5490117077234777,3
0.0481061151244368,-0.2068257275646059,0.4293266045385985,0.0706910311733585,0.3185876428798587,-0.5717635113912684,3
0.0395785916730163,-0.190690851817792,0.4098225851103292,0.0787667860579549,0.2818963583205386,-0.5964112935207433,3
0.0221393934903458,-0.1791073598407684,0.4011025440417343,0.0874637411129782,0.2513203017699392,-0.6115791522780069,3
0.0039255431400852,-0.1344305971921134,0.4008732176760587,0.0967819166943013,0.2339938836401002,-0.6210590756502181,3
0.0260158291322611,-0.1265681918712546,0.3967434633695911,0.1104485850700407,0.2309362696357398,-0.6324349774841135,3
0.0601195733300121,-0.1315330297139519,0.3960554842725647,0.1303273671073501,0.2339938836401002,-0.647602836241377,3
0.0949979696953532,-0.1604917596565112,0.3939896672571766,0.1446152356535164,0.2390898958483003,-0.6665626519220089,3
0.1267777573903345,-0.2002070734302795,0.3896305865850334,0.1464788768765429,0.2390898958483003,-0.6931064435769585,3
0.1457662599081849,-0.2171688573229079,0.389859912950709,0.1334334188491669,0.206475457792462,-0.7215461826298016,3
0.15196665205287,-0.2366113656529794,0.3905478920477355,0.1266000948392336,0.1779377994457023,-0.7310261060020129,3
0.1550684355271954,-0.2730156578756792,0.3919257299660972,0.1123122161151308,0.1422657306869028,-0.7442979862975924,3
0.1511919998852801,-0.3214202851161208,0.4070687889979144,0.0849788997195248,0.1045552804228645,-0.7651537804399082,3
0.1341401277864045,-0.3263817339910074,0.4091346060133027,0.0501910286097494,0.0699024107659849,-0.7898016246969645,3
0.1043001453143637,-0.3205899880024955,0.4084466269162763,0.0216152813394802,0.0434031840202665,-0.8049695145180187,3
0.0732950097869724,-0.3069392256609358,0.405922157169537,0.0160243780262737,0.0301535622981069,-0.7954895911458075,3
0.0570177898556868,-0.3073526797338431,0.3962848106382401,0.0334183084921932,0.0352495578077061,-0.7727377874780166,3
0.053531855101532,-0.3330037770931444,0.3905478920477355,0.0880849514613416,0.0505375944323063,-0.7442979862975924,3
0.0504300716272066,-0.3714753396803803,0.3997265858476813,0.096160706345938,0.0484991795298657,-0.7442979862975924,3
0.0457789838177014,-0.40953683716252,0.4171647882605623,0.0831152686744347,0.041364769117826,-0.7518819001443288,3
0.0426803751473416,-0.4459411293852197,0.4334563588450661,0.0564031422713193,0.0291343464975863,-0.7575698665931718,3
0.0201995882674053,-0.5199900760493411,0.4660395000140732,0.0272061948306232,0.0128271274696671,-0.7499859216826447,3
4.910749816996754e-05,-0.5477084437731787,0.4759061729110455,0.0017364993021709,0.0005967048494274,-0.7310261060020129,3
-0.0139041559303457,-0.5613592061147384,0.4738422356199662,-0.0168998518604752,-0.0055185064606924,-0.700690357423695,3
-0.0243683098007412,-0.5638433195199924,0.4667293588354085,-0.0280816686648248,-0.0044993073587726,-0.6665626519220089,3
-0.0418075079834117,-0.5559809141991338,0.460073255057893,-0.0305665202362146,0.0005967048494274,-0.6286429894969545,3
-0.0654470983107673,-0.528265935443107,0.4577799914011381,-0.0032331936626722,0.0291343464975863,-0.5471157292617935,3
-0.0766859043487527,-0.4931020054391288,0.4547968689230479,0.0309334670987398,0.0505375944323063,-0.5300518609790552,3
-0.0728094687068375,-0.4786209459839439,0.4520430728106332,0.0756607241382017,0.0648064152563857,-0.5376358058895824,3
-0.0627358157242025,-0.497236546168201,0.4561728271171008,0.1166606987316107,0.0699024107659849,-0.5471157292617935,3
-0.0390930505928813,-0.5688081573626897,0.4525017255419842,0.1415091737337633,0.0699024107659849,-0.5452197197363188,3
-0.0317306801968112,-0.5853530982146001,0.4460768278544531,0.142130394260063,0.0648064152563857,-0.526259904055687,3
-0.0449061166537715,-0.562186114260553,0.4444715432947246,0.1278425155359603,0.0515567935342261,-0.5016121219262121,3
-0.0631231418079975,-0.5568112113127589,0.4582386441324891,0.1321909981524402,0.0352495578077061,-0.4807562967201055,3
-0.0782352086839326,-0.6316870661226948,0.4747595410826681,0.161387965949009,0.036268756909626,-0.435252689384524,3
-0.1053639085694087,-0.7007745639119296,0.4635169099916428,0.1874788718258247,0.123920113455144,-0.2399664418742,3
-0.1185425198303345,-0.6941559097776033,0.4428643790106873,0.1738122136280217,0.1779377994457023,-0.1773989973196708,3
-0.117377366774984,-0.6341711795279488,0.4449301960260757,0.1564182729841658,0.2350130827420201,-0.1508552367285119,3
-0.1313306302034997,-0.6118311037197159,0.4394226038012462,0.1502061593225958,0.2982035940470585,-0.152751215190196,3
-0.1228031067520792,-0.6767806718120679,0.4336856852107415,0.1545546419390757,0.3573173089444177,-0.1584391505752483,3
-0.0918011460286534,-0.6991207476203005,0.4318510742853376,0.1483425180995694,0.4072581484314941,-0.1451672702796688,3
-0.0394803766766763,-0.6412032877351824,0.4300145836356249,0.1203879709997272,0.4449686153941332,-0.1148315527651416,3
0.007024151810445,-0.5526732816158761,0.4268021347918592,0.0905698030327314,0.4612758511206532,-0.0825998567889303,3
0.0271778073836459,-0.5170958975389907,0.4231310332167426,0.0719334518700852,0.429680595468134,-0.0352002709916647,3
0.0279524595512359,-0.5472949897002715,0.4199185843729771,0.0613728454140989,0.3899317303016551,-0.0257203476194535,3
0.0143865222065151,-0.6093503792822726,0.4173941146262379,0.0402516325021265,0.3399908741159779,-0.0295123356066123,3
-0.0077037637856606,-0.658578525700718,0.415100850969483,0.0085698334900406,0.2890307687325783,-0.0408882374405077,3
-0.0464585957929169,-0.5766671737157377,0.3930723617944746,-0.0181422827351383,0.2452051071584201,-0.0750159429421938,3
-0.0483952262118918,-0.5146117841337366,0.3799932400537366,-0.0168998518604752,0.2054562419919413,-0.1281034330607211,3
-0.0507191827146617,-0.5146117841337366,0.3751736269259337,0.0185092194197271,0.163668961923022,-0.1830869327047232,3
-0.0677710548135372,-0.5584650276043878,0.375863485747269,0.0669637589052419,0.1208624994507836,-0.2229026046552523,3
-0.0941251025314233,-0.6122445577926232,0.3864181377412679,0.1048576715788977,0.0862096464925049,-0.245654408323043,3
-0.1150534102722141,-0.6627164553976008,0.4130350339540947,0.1377819014656467,0.0892672437982644,-0.1887748991535662,3
-0.1204791502493093,-0.6821589637276725,0.436898134054507,0.1222516122227537,0.1443041455893433,-0.1318953899840893,3
-0.1111769746302988,-0.6709889258235558,0.4414884208166345,0.0942970753008479,0.206475457792462,-0.0844958352506144,3
-0.0840482747448228,-0.6399629255164607,0.4258848293291574,0.0651001176822155,0.24622430626034,-0.0522641392744031,3
-0.0576974018309023,-0.6234145956967397,0.4277213199788701,0.0383880014570364,0.2574355130800591,-0.0427842159021918,3
-0.0383183984252913,-0.601487973961414,0.4329977061137151,0.0191304297680904,0.2441858913578994,-0.0541601177360872,3
-0.0220411784940057,-0.5774940818615523,0.4290972781729229,0.0141607368032472,0.2207442619179406,-0.0825998567889303,3
-0.0049893063951302,-0.5733561521646693,0.4187719525445996,0.0185092194197271,0.1922066202697817,-0.1186235096885098,3
0.0105132613685653,-0.572942698091762,0.4100519114760046,-0.0063392555824254,0.123920113455144,-0.2172146382064093,3
0.0198122621836103,-0.5406763355659451,0.3926137090631236,-0.0361574235494212,0.0780560369785453,-0.2873660587352562,3
0.0105132613685653,-0.5005475677192696,0.3696679144254133,-0.0498240919251606,0.0260767491918267,-0.3537254912769442,3
-0.0166154385169106,-0.4897909838880602,0.3616358524538449,-0.0454755991307443,-0.0167297132804115,-0.3897491441765239,3
-0.0557575966079618,-0.5315735680263649,0.375863485747269,-0.0405059061659011,-0.0360945630112918,-0.397333089087051,3
-0.061570662668852,-0.5605322979689239,0.3802225664194122,-0.0417483268626278,-0.0381329445165307,-0.4030209934083127,3
-0.0685488817850927,-0.5903179360572977,0.380681219150763,-0.0436119680856543,-0.0371137621132117,-0.4181888521655763,3
-0.0786225347677276,-0.6151387363029739,0.376780791209971,-0.0442331784340176,-0.0422097576228109,-0.440940655833367,3
-0.0921884721124484,-0.6316870661226948,0.3705852198881153,-0.0473392403537708,-0.0534209811411308,-0.4599004715139988,3
-0.1135041059370342,-0.638305720257021,0.3648483012976104,-0.0460968196570441,-0.0727858141734103,-0.4731723518095783,3
-0.1417947840738952,-0.6304467039039732,0.3627843640065309,-0.0342937925043312,-0.0687090010671301,-0.4542125361289466,3
-0.1700854622107561,-0.6002476117426924,0.363701669469233,-0.0168998518604752,-0.052401782039211,-0.4219808090889445,3
-0.1960521838448472,-0.5605322979689239,0.3591132624314144,0.0004940786054442,-0.0320177499050116,-0.3916451537019986,3
-0.1933377264543168,-0.5592919357502023,0.3542936493036115,0.0135395264548838,-0.0208065263866917,-0.3859571872531556,3
-0.1852007038906568,-0.5518463734700616,0.3584234036100791,0.0222364916878436,-0.0259025385948917,-0.4049169718699968,3
-0.1739618978526714,-0.5543270979075049,0.3689799353283869,0.0265849743043235,-0.0442481558266505,-0.4371486678462081,3
-0.1669836787364308,-0.572529244018855,0.3793052609567102,0.0247213432592334,-0.0687090010671301,-0.4731723518095783,3
-0.163110417898481,-0.5849396441416931,0.3859594850099169,0.0122971057581571,-0.1115154802379693,-0.526259904055687,3
-0.161948439647096,-0.5861833953282254,0.3907772184134109,0.0029789199988976,-0.1176306915480891,-0.5357398274278982,3
-0.1658217004850458,-0.566737498030343,0.3923843826974482,-0.0032331936626722,-0.1135538951404098,-0.5243639255940028,3
-0.1743492239364664,-0.5336442273587116,0.3861888113755925,-0.0044756143593989,-0.0992850576177295,-0.495924155477369,3
-0.2014779238219424,-0.517922805684805,0.363701669469233,-0.0019907729659455,-0.0789010254835302,-0.4769643397967372,3
-0.2030272281571223,-0.5170958975389907,0.3536056702065851,-0.0013695626175822,-0.0585169933493308,-0.4826522751817895,3
-0.198376140347617,-0.5224741894545952,0.3370847732564062,-0.0106877381989053,-0.0473057698310109,-0.5129880237601074,3
-0.1933377264543168,-0.5104772434046644,0.3157442631784241,-0.0287028790131882,-0.0503633671367704,-0.5603876095573731,3
-0.190239117783957,-0.4777940378381294,0.290044672428299,-0.0467180300054074,-0.0687090010671301,-0.6096831738163228,3
-0.1890739647286066,-0.4347710914811032,0.2625104707527702,-0.0684604430878069,-0.1492259305020075,-0.7044823143470632,3
-0.190626443867752,-0.3929885073427988,0.2372695327339962,-0.0765361979724033,-0.2154740391128055,-0.7613618235165401,3
-0.2065163377152426,-0.3673374099834975,0.22556824891162,-0.085233163205363,-0.2919141554414028,-0.8220333517369663,3
-0.3037891564151957,-0.3632028692544252,0.2654935932308603,-0.0839907425086363,-0.3622390771584811,-0.8732248944576002,3
-0.3599831866051227,-0.389264031718823,0.2884393878685706,-0.064111960471327,-0.4081031536350797,-0.8978726765870749,3
-0.4115293037895098,-0.4475949456768486,0.303584326624697,-0.0249756067450716,-0.4264487875654394,-0.9054566214976024,3
-0.4611356157509566,-0.5084065840723175,0.3187273856565142,0.0278274051789866,-0.4305255839731187,-0.9187285017931816,3
-0.508414796405668,-0.5799781952668063,0.334101650778316,0.0750395137898383,-0.4264487875654394,-0.956648164218236,3
-0.5487221075520698,-0.6469950337236942,0.3435096709439372,0.096160706345938,-0.4162567631490393,-1.0628231133914998,3
-0.5777874378565206,-0.6742999473746244,0.3437389973096129,0.0831152686744347,-0.4070839545331599,-1.09884679735487,3
-0.6006523760162864,-0.6941559097776033,0.3425904857569266,0.068827389950332,-0.39077671880664,-1.1140146561121336,3
-0.6242919663436421,-0.734698131697186,0.3487860570787823,0.0545395112262292,-0.3683542884686009,-1.1026387542782383,3
-0.671186995718524,-0.7644837697855598,0.3804518927850876,0.0396304221537631,-0.3357398337141619,-1.0590311564681318,3
-0.6894008460687845,-0.7500027103303749,0.3790759345910348,0.0253425536075968,-0.2888565414370425,-0.992671848181606,3
-0.7002523260229749,-0.7214608234285336,0.3650776276632858,0.0135395264548838,-0.2399349010518859,-0.932000382088761,3
-0.7010269781905648,-0.6941559097776033,0.3540643229379361,0.009191043838404,-0.2032436164925658,-0.9054566214976024,3
-0.6967663912688201,-0.6714023798964632,0.3517691795568724,0.0141607368032472,-0.1889747956684863,-0.9206244802548657,3
-0.6928899556269048,-0.6569247094090889,0.3517691795568724,0.0390092118053998,-0.2358580879456057,-1.0154236518493969,3
-0.7006396521067699,-0.6767806718120679,0.3538349965722607,0.0545395112262292,-0.2807029653202846,-1.0438632977108682,3
-0.724669743321886,-0.7313871101461175,0.3600305678941164,0.0613728454140989,-0.3204517970895617,-1.0476552546342364,3
-0.7576115092682523,-0.7711024239198859,0.3673727710443495,0.0539183008778659,-0.3449126423300413,-1.0249034509664456,3
-0.814967517709564,-0.7301467479273959,0.3715025253508172,0.0414940633767896,-0.3459318414319611,-0.9850879343348696,3
-0.8250443454961645,-0.6776075799578825,0.368060750141376,0.0408728530284262,-0.3265670083996816,-0.9395843269992884,3
-0.8281429541665244,-0.6333442713821344,0.3630136903722066,0.0570243627976191,-0.2980293667515227,-0.8978726765870749,3
-0.8258189976637546,-0.6019014280343212,0.3540643229379361,0.0856001100678882,-0.2684725427000448,-0.8732248944576002,3
-0.8223298881056341,-0.5919751413167371,0.3430510182125865,0.1315697878040768,-0.2266852793297263,-0.9187285017931816,3
-0.8250443454961645,-0.5990072495239706,0.3370847732564062,0.1377819014656467,-0.2297428766354859,-0.9775039894243428,3
-0.8436455219302199,-0.6118311037197159,0.3359362617037199,0.1352970600721933,-0.2501269087696852,-1.028695407889814,3
-0.8843401591604167,-0.6474084877966014,0.3359362617037199,0.1272213051875969,-0.2807029653202846,-1.0609271349298155,3
-0.9827749561117548,-0.7760672617625836,0.3572767717817017,0.115418278034884,-0.3122981875756022,-1.0741990152253955,3
-1.0230822672581568,-0.8207440244112384,0.3719611780821681,0.1017516096591446,-0.334720634612242,-1.0628231133914998,3
-1.0521475975626076,-0.824468500035214,0.3774687703069974,0.0880849514613416,-0.3377782319180015,-1.030591386351498,3
-1.0734632313871932,-0.8087470783613075,0.3737976687318809,0.0787667860579549,-0.3163750006818824,-0.992671848181606,3
-1.092451733905044,-0.8033687864457029,0.3682900765070516,0.0737970829151752,-0.2847797784265648,-0.9737120325009744,3
-1.1064049973335597,-0.7992342457166307,0.3676020974100252,0.0663425383789422,-0.2501269087696852,-0.992671848181606,3
-1.1149293459810146,-0.7884776618854215,0.3692092616940623,0.0638576868075524,-0.2480885105658455,-1.0040477500155014,3
-1.1273333050743506,-0.7826859158969097,0.3719611780821681,0.0663425383789422,-0.2491077096677653,-1.0097357164643446,3
-1.162211701439691,-0.7996476997895378,0.375404833015918,0.0713122415217218,-0.2531845227740456,-1.0173196303110812,3
-1.1819780309290977,-0.807920170215493,0.3802225664194122,0.0700698106470587,-0.2582805349822455,-1.0267994294281295,3
-1.206392273424043,-0.8033687864457029,0.3864181377412679,0.0626152661108256,-0.2633765471904456,-1.028695407889814,3
-1.2273205811648338,-0.7901314781770504,0.3916964036004218,0.0520546596548394,-0.2654149453942853,-1.0059437284771855,3
-1.2451471054312993,-0.7781345321271196,0.393760340891501,0.0433576944218797,-0.262357331389925,-0.95854414267992,3
-1.2645261088369102,-0.7677914023688175,0.3900892393163844,0.0352819497152196,-0.233819689741766,-0.8504730907898095,3
-1.2827399591871709,-0.7586920237970477,0.3822883834348003,0.0383880014570364,-0.2083396287007658,-0.8201373732752822,3
-1.2935914391413612,-0.750416164403282,0.37632213847862,0.0408728530284262,-0.1859171983627268,-0.810657449903071,3
-1.2986298530346614,-0.7483488940387458,0.376780791209971,0.0414940633767896,-0.1767443730482466,-0.8144494068264392,3
-1.3090940069050567,-0.7756538076896761,0.3834350152631777,0.0396304221537631,-0.184897999260807,-0.8201373732752822,3
-1.3214947911944273,-0.7648972238584668,0.3799932400537366,0.0296910362240767,-0.2063012304969262,-0.8220333517369663,3
-1.336997358958123,-0.734284677624279,0.3747149741945829,0.0122971057581571,-0.2328004906398462,-0.8087614714413869,3
-1.3540492310569985,-0.6953962719963249,0.3717318517164927,-0.0032331936626722,-0.2542037218759654,-0.782217710850228,3
-1.3819525831100643,-0.6796748503224186,0.3728803632691788,-0.0057180452340621,-0.2633765471904456,-0.7537779096698036,3
-1.424583850759236,-0.6925020934859744,0.3781567494040239,0.0160243780262737,-0.2246468811258866,-0.7044823143470632,3
-1.4726376835815371,-0.7069797639733487,0.3838936679945288,0.0296910362240767,-0.1726675766405672,-0.6779385537559042,3
-1.5086812330022288,-0.7152556233671145,0.3859594850099169,0.043978904770243,-0.1125346793398891,-0.6513947931647454,3
-1.521469343375394,-0.7280794775628597,0.3788466082253591,0.0564031422713193,-0.0605553915531705,-0.6305389679586386,3
-1.5086812330022288,-0.7384192183533511,0.3721923841721524,0.0595092041910725,-0.0279409367987314,-0.6191630661247433,3
-1.4982170791318334,-0.732214018291932,0.3659968128502967,0.0526758801811392,-0.0167297132804115,-0.6153711092013752,3
-1.4978297530480384,-0.7127715099618604,0.3602598942597919,0.0408728530284262,-0.0167297132804115,-0.6039952073674797,3
-1.5102305373374088,-0.7049124936088126,0.3524590383782077,0.0321758877954665,-0.0197873272847719,-0.581243403699689,3
-1.5361972589715,-0.716082531512929,0.3474100988847294,0.0296910362240767,-0.0146913150765718,-0.5186759591451598,3
-1.568751698834071,-0.7437975102689558,0.3487860570787823,0.0284486155273499,0.0036543188537877,-0.4978201339390531,3
-1.5923912891614267,-0.769448607628257,0.3529176911095587,0.022857702036207,0.0342303587057863,-0.4921321985540009,3
-1.6005314865290523,-0.7868238455937924,0.3542936493036115,0.0129183161065205,0.0729600247703453,-0.4902362200923167,3
-1.5858035709329468,-0.7975770404571912,0.3446563027723147,0.0004940786054442,0.107612877728624,-0.4864442631689485,3
-1.5710756553368408,-0.7855800944072604,0.3368554468907305,-0.011930158895632,0.1310545071685829,-0.4731723518095783,3
-1.55596041365694,-0.7686216994824427,0.3299718964718484,-0.0224907653516182,0.1422657306869028,-0.4504205792055782,3
-1.5404610206972102,-0.7413167858315122,0.3244643042470191,-0.0330513616296681,0.1443041455893433,-0.4276687755377876,3
-1.521469343375394,-0.6978803854015789,0.3173514274624614,-0.0460968196570441,0.141246531584983,-0.4162928737038922,3
-1.5040301451927236,-0.6577516175549034,0.3040429793560478,-0.0610059087295102,0.123920113455144,-0.4200848306272605,3
-1.5044174712765184,-0.6407898336622752,0.2879807351372198,-0.0510665126218873,0.1086320768305439,-0.4181888521655763,3
-1.522243995542984,-0.6573381634819961,0.2801779995313268,-0.0361574235494212,0.0984400691127446,-0.4125008857167332,3
-1.5796031787882612,-0.7073932180462558,0.2870615499502089,-0.0231119756999816,0.0984400691127446,-0.4049169718699968,3
-1.6001409856412918,-0.7102907855244173,0.2849976126591297,-0.0113089485472686,0.1086320768305439,-0.3916451537019986,3
-1.6040174212832072,-0.7069797639733487,0.2797193467999758,0.0017364993021709,0.1279969098628234,-0.365101362047049,3
-1.600918812612847,-0.697050088287954,0.277426083143221,0.0160243780262737,0.1504193402008624,-0.3347656445325218,3
-1.5958803987195471,-0.673056196188092,0.2755895924935082,0.0309334670987398,0.1708033890336626,-0.3025339174925198,3
-1.5842542665977666,-0.642443649953904,0.2680180629775995,0.0501910286097494,0.1993410306818214,-0.2475503867847271,3
-1.568751698834071,-0.6134849200113448,0.2574615312592919,0.0576455731459824,0.1983218315799016,-0.2266945615786205,3
-1.5579002188798807,-0.5961096820458094,0.2482847171836547,0.0682061796019686,0.1911874211678619,-0.213422681283041,3
-1.5524744789027856,-0.5944558657541805,0.2409406343091127,0.0787667860579549,0.1820146125519825,-0.213422681283041,3
-1.5420103250323898,-0.5741864492782944,0.2322224729648268,0.0837364790227981,0.1728417872375022,-0.2210066261935681,3
-1.5454994345905104,-0.5638433195199924,0.2349762690772413,0.0843576893711614,0.163668961923022,-0.2323825280274635,3
-1.5567382406284958,-0.5638433195199924,0.2404819815777619,0.0824940583260714,0.1555153524090624,-0.245654408323043,3
-1.5675897205826863,-0.572942698091762,0.246448226533942,0.0775243551832918,0.1483809419970227,-0.2589262886186225,3
-1.5761140692301412,-0.5865968494011325,0.2533317769528244,0.0694486002986954,0.1422657306869028,-0.272198168914202,3
-1.5842542665977666,-0.5940424116812733,0.2648056141338339,0.0433576944218797,0.1371697184787028,-0.2589262886186225,3
-1.592003963077632,-0.5894910279114831,0.2785727149715983,0.0352819497152196,0.1453233446912632,-0.2247985831169364,3
-1.597042376970932,-0.5779075359344595,0.2877514087715442,0.0352819497152196,0.1585729664134228,-0.1887748991535662,3
-1.5838669405139718,-0.5423301518575742,0.2950936119217776,0.0390092118053998,0.1738609863394221,-0.1698150524091437,3
-1.5660372414435406,-0.5166824434660834,0.2976180816685167,0.0446001252965428,0.1830338116539023,-0.1755030188579867,3
-1.5516998267351956,-0.4918616432204072,0.3003718777809312,0.0501910286097494,0.1871106247601825,-0.2020467794491457,3
-1.54859804326087,-0.4604187998725939,0.3102385506779037,0.0557819319229559,0.1840530107558222,-0.2418624203358841,3
-1.5602241753826502,-0.431873524002942,0.3279060794564601,0.0663425383789422,0.1728417872375022,-0.2911580156586245,3
-1.5803778309558514,-0.4227741454311724,0.3425904857569266,0.1210091813480906,0.1443041455893433,-0.4087089287933651,3
-1.603630095199412,-0.4364249077727323,0.3503932213628196,0.1620091864753088,0.141246531584983,-0.4712763733478942,3
-1.6284348385821183,-0.4711753837038032,0.3570474454160263,0.2042515715875081,0.1534769542052227,-0.5281558825173711,3
-1.6532364071608587,-0.5245414598191314,0.363701669469233,0.2402818633940102,0.1769186003437824,-0.5622835880190572,3
-1.6931532174195003,-0.6577516175549034,0.3623257112751802,0.2620242866543461,0.2105522542001414,-0.5660755449424254,3
-1.7067191547642209,-0.7193901640961866,0.3568181190503509,0.2657515589224626,0.2482627044641797,-0.5452197197363188,3
-1.7105955904061363,-0.7657241320042814,0.3552109547663136,0.2551909524664764,0.2869923705287386,-0.5091960357729486,3
-1.7016807408709207,-0.7971635863842838,0.3575060981473773,0.2340697497324403,0.3206260410836984,-0.4693803948862102,3
-1.68734015135861,-0.8141253702769121,0.3602598942597919,0.2079788438556246,0.3461060854260978,-0.4238767875506286,3
-1.6706756053435297,-0.8145388243498193,0.3618651788195203,0.1595243349039189,0.3848357180934551,-0.3252857211603105,3
-1.653623733244654,-0.8021284242269813,0.3614065260881693,0.1446152356535164,0.4011429371213742,-0.2835741018118879,3
-1.638121165480958,-0.7806186455323736,0.35934258879709,0.1408879633853999,0.4164309737459744,-0.245654408323043,3
-1.6001409856412918,-0.7520733696627214,0.3559008135876488,0.1489637284479327,0.4276421972642942,-0.2058387363725139,3
-1.582314461374826,-0.7537271859543505,0.3538349965722607,0.1663576690917886,0.4388534040840133,-0.1584391505752483,3
-1.5641006110245657,-0.7578651156512335,0.350622547728495,0.1874788718258247,0.4490454285004134,-0.1167275312268258,3
-1.54278497719998,-0.7628299534939307,0.3460341406906764,0.2048727819358714,0.4592374362182126,-0.0920797490973509,3
-1.5234091485983343,-0.7756538076896761,0.3414438539285491,0.2154333883918577,0.4663718466302524,-0.0769119214038779,3
-1.507131928667049,-0.7955097700926551,0.3400678957344963,0.2048727819358714,0.4704486597365326,-0.0370962494533488,3
-1.4982170791318334,-0.8141253702769121,0.3409852011971981,0.1905849133897051,0.4724870579403722,0.0065113794205484,3
-1.4962804487128585,-0.8269492244726575,0.3409852011971981,0.1700849413599052,0.479621468352412,0.0577029221411822,3
-1.4850416426748732,-0.80999082954784,0.3354776089723688,0.1439940253051531,0.4949095049770121,0.0994145414896048,3
-1.4683770966597929,-0.7802051914594662,0.3338723244126404,0.1247364536162071,0.5203895493194115,0.1278542805424479,3
-1.4427977011094963,-0.7574516615783261,0.3361674677937041,0.1191455503030005,0.5499463900694902,0.1487101057485545,3
-1.4133450447212506,-0.7450412614554882,0.3444269764066393,0.1241152432678437,0.5764456335138094,0.1600860075824499,3
-1.3842765396128345,-0.7380057642804437,0.3524590383782077,0.1309485774557134,0.5917337035356113,0.1581900291207657,3
-1.3629609057882486,-0.7301467479273959,0.3526883647438833,0.1284637258843236,0.5886760895312508,0.1316462685296068,3
-1.3559858614759734,-0.7169094396587434,0.3432803445782618,0.1253576639645705,0.5795032475181698,0.108894464861816,3
-1.3536619049732033,-0.7007745639119296,0.3272181003594337,0.129084936232687,0.5733880362080499,0.0823506732068664,3
-1.344359729354193,-0.6900179800807204,0.3102385506779037,0.1415091737337633,0.5713496380042102,0.0558069436794981,3
-1.3071542016821165,-0.6962231801421395,0.2866028972188581,0.1601455452522823,0.5754264344118896,0.0330551400117074,3
-1.2920421348061812,-0.7028418342764657,0.2771948770532367,0.1818879685126181,0.5805224466200896,0.0121993148056008,3
-1.2804128278804354,-0.7156690774400218,0.2707699793657053,0.2036303612391447,0.5845992764249707,-0.0086565104005057,3
-1.2680120435910651,-0.7380057642804437,0.2693940211716525,0.2228879329280907,0.5856184922254913,-0.0276163571449283,3
-1.2501855193245996,-0.7632434075668382,0.2728357963810937,0.2346909600808036,0.5856184922254913,-0.0427842159021918,3
-1.2366227567838444,-0.7901314781770504,0.2785727149715983,0.2365545911258937,0.5896952886331707,-0.0522641392744031,3
-1.238172061119024,-0.8207440244112384,0.2838491011064434,0.2303424774643238,0.5988681139476509,-0.044680194363876,3
-1.24786156282183,-0.8447413054789109,0.2852269390248051,0.2228879329280907,0.61517533297557,-0.0352002709916647,3
-1.2435978010961195,-0.8960367222618923,0.2606739801030575,0.2179182399632475,0.63148256870209,-0.0257203476194535,3
-1.2269332550810388,-0.924168544058637,0.241630493130448,0.2123273264721044,0.6406553773179694,-0.0162404242472422,3
-1.204842969088863,-0.9506465495637528,0.2313032877778159,0.2054940024621712,0.6386169791141298,-0.0010725654899786,3
-1.1835273352642772,-0.9700890578938244,0.2274028598370239,0.1992818786226649,0.6243481582900503,0.0235752166394961,3
-1.170739224891112,-0.9853936365270128,0.2253389225459444,0.1930697547831585,0.6049833252577708,0.0558069436794981,3
-1.1676374414167867,-0.9949098581395004,0.2280908389340503,0.1769182653698385,0.5703304222036896,0.1202703666957114,3
-1.1672501153329915,-0.995736766285315,0.2315326141434915,0.1657364485654889,0.55606160137961,0.1487101057485545,3
-1.1595004188531266,-0.9928425877749644,0.2331397784275286,0.1514485800193225,0.5458695936618108,0.1695659309546611,3
-1.1420580458664906,-0.9882912040051742,0.2354349218085923,0.1390243323403099,0.5387351832497711,0.1809418327885565,3
-1.095553517379369,-0.9837398202353842,0.2386473706523579,0.1309485774557134,0.5336391710415711,0.188525746635293,3
-1.0711392748844235,-0.9845667283811986,0.2443824095185539,0.1266000948392336,0.5285431588333711,0.2017976269308724,3
-1.0494363149760428,-0.995323312212408,0.2505779808404096,0.1247364536162071,0.5214087484213313,0.2188614952136108,3
-1.0331590950447571,-1.008147166408153,0.2579220637149516,0.1234940329194804,0.5152935371112115,0.2397172893559268,3
-1.0188185055324464,-1.018903750239362,0.2631984498497966,0.1203879709997272,0.5122359231068511,0.2586771361003492,3
-1.0021539595173656,-1.0230416799362452,0.2609033064687331,0.1073425231502876,0.5112167240049312,0.2776369517809811,3
-0.9804509996089852,-1.0147658205424794,0.2563148994309145,0.1029940405338077,0.5091783258010916,0.275740973319297,3
-0.9591353657843992,-1.0052529878978027,0.2537904296841753,0.1054788819272611,0.5020439153890519,0.2700530379342446,3
-0.9378197319598134,-1.0106312798134072,0.2526437978557979,0.1141758573381573,0.4928711067731724,0.2586771361003492,3
-0.944410624992259,-1.0267627665924104,0.2517264923930959,0.1241152432678437,0.4857366796625318,0.2473012342664539,3
-0.9571987353654244,-1.0457952098173853,0.2519558187587715,0.13653948076892,0.4877750945649724,0.2378213108942426,3
-0.9618498231749294,-1.0656511722203643,0.2514971660274205,0.153933421412776,0.5000055171852121,0.2378213108942426,3
-0.9498331901653886,-1.0908854265389476,0.2485140435493303,0.1744334239763851,0.5193703502174917,0.2529891696515062,3
-0.9296827093961532,-1.1190172483356924,0.2485140435493303,0.202387940542418,0.5611576135878101,0.3136606357443513,3
-0.9064304451525924,-1.1351521240825062,0.2487433699150057,0.2086000542039879,0.5774648326157292,0.3458923627843533,3
-0.8827876800212713,-1.1355655781554133,0.2448429419742138,0.2166758090885844,0.5886760895312508,0.368644166452144,3
-0.8630245253358308,-1.1326680106772522,0.2379575118310226,0.2272364155445706,0.592752902637531,0.3819160467477235,3
-0.8386071080369197,-1.1690756918677625,0.2232731055305563,0.2421455046170367,0.5907144877350905,0.3913959390561441,3
-0.8265936498313445,-1.2075472544549986,0.221207288515168,0.2570545936895028,0.5835800773230507,0.4008758624283554,3
-0.8176819751000945,-1.2447818437913236,0.2179948396714024,0.2645091280477994,0.5784840484162499,0.4198357091727778,3
-0.809154451648674,-1.2712564603286287,0.2120285947152221,0.2638879176994361,0.5774648326157292,0.4482754482256209,3
-0.7948138621363632,-1.289872060512886,0.203769086102287,0.2614030763059827,0.5795032475181698,0.4918830770995183,3
-0.7750507074509227,-1.313039044466933,0.1913779434585756,0.2614030763059827,0.5917337035356113,0.5980581194641541,3
-0.7514079423196015,-1.33331184991063,0.178528148083513,0.2527061008950865,0.5937721017394509,0.6397697388125767,3
-0.7231172641827406,-1.3382732987855166,0.1702686394705778,0.2402818633940102,0.5896952886331707,0.6738974443142628,3
-0.6863022373984247,-1.3221418120065136,0.1525992309677125,0.2322061085094138,0.5795032475181698,0.7061291713542649,3
-0.6735109522212939,-1.322968720152328,0.1443397223547774,0.2297212671159604,0.5693112231017696,0.7307769845475303,3
-0.6595608635967437,-1.3357925743480734,0.1386028037642727,0.2322061085094138,0.5581000162820505,0.7497368002281621,3
-0.6483220575587583,-1.3548216286052377,0.1303414154270287,0.2346909600808036,0.5499463900694902,0.7762805918831117,3
-0.6343687941302426,-1.3726103206436806,0.1213939277170671,0.2340697497324403,0.5458695936618108,0.814200254308166,3
-0.6169295959475719,-1.3875048341717724,0.1181814788733013,0.2278576258929339,0.5265047606295313,0.9108953422368,3
-0.5994903977649014,-1.3978479639300747,0.1170329673206152,0.2235091432764541,0.5142743380092916,0.9488150046618544,3
-0.5735236761308103,-1.3999152342946108,0.1133618657454985,0.2191606606599742,0.5030631144909717,0.9829427101635404,3
-0.5386452797654693,-1.3916393749008449,0.1053316834982389,0.216054598740221,0.4908326918707318,1.0094864707546995,3
-0.4750857043755068,-1.385847628912333,0.0950063578699157,0.2129485368204678,0.4745254728428128,1.0284462864353312,3
-0.4557098757738614,-1.3726103206436806,0.0975289478923459,0.2079788438556246,0.457199038014373,1.0493021116414378,3
-0.4436964175682861,-1.35151399602198,0.0966116424296441,0.2042515715875081,0.4470070135979729,1.075845872232597,3
-0.4316797845587452,-1.3345522121293516,0.0929405408545273,0.2073576335072612,0.445987814496053,1.1004936543620716,3
-0.4092021724827744,-1.3221418120065136,0.0883521338167089,0.2191606606599742,0.4521030258061729,1.1061816208109148,3
-0.3770382335079637,-1.3146928607585622,0.0807787245764913,0.2701000415389424,0.4541414407086134,1.0682619583858604,3
-0.3444837936453925,-1.3159366119450944,0.0672409501044025,0.3055091229970813,0.4439494162922134,1.053094099628597,3
-0.3220061815694218,-1.330827736505376,0.052556543803936,0.3421606455078196,0.429680595468134,1.0436141762563855,3
-0.299528569493451,-1.4164635641143315,0.0247911360384229,0.3719788134748154,0.4143925588435338,1.0436141762563855,3
-0.2836386756459604,-1.4632109860953335,0.0149244631414504,0.3837818406275283,0.3980853398156147,1.0606780134753333,3
-0.2658089765755294,-1.4954773486211503,0.0082702390882437,0.3744636650462052,0.3838165189915352,1.0929097405153354,3
-0.2495317566442437,-1.5161636081377543,0.0002400568409841,0.3496151900440526,0.3705669306665773,1.1308294029403896,3
-0.2297686019588033,-1.5211250570126411,-0.0066453733022069,0.3185545912023937,0.3583365080463375,1.1649571084420756,3
-0.2038018803247122,-1.5128525865866858,-0.0091679633246372,0.2632667073510727,0.3308180655000985,1.2123566942393411,3
-0.1805496160811515,-1.5062339324523597,-0.0089386369589618,0.2440091356621267,0.3145108297735785,1.227524615124186,3
-0.1646597222336609,-1.5099584080763355,-0.0098578221459725,0.2272364155445706,0.3002419922508982,1.2389005169580816,3
-0.1526462640280856,-1.520711602939734,-0.0155928610121685,0.2129485368204678,0.2890307687325783,1.248380440330293,3
-0.1259048902264045,-1.5285740082605928,-0.0254595339091408,0.2073576335072612,0.2808771592186188,1.2540683757153452,3
-0.1057512346532036,-1.5335388461032895,-0.0275253509245291,0.2154333883918577,0.2666083383945393,1.255964354177029,3
-0.0914138199448585,-1.555875532943712,-0.028901309118582,0.2371758116521934,0.2452051071584201,1.2578603326387132,3
-0.0852134278001733,-1.5939370304258516,-0.0323430843280231,0.268236400315916,0.2207442619179406,1.2635482990875566,3
-0.0751366000135728,-1.6286875063569228,-0.0376213501871768,0.2980545784608482,0.2054562419919413,1.2749242009214516,3
-0.0553702705241669,-1.6439920849901113,-0.0440462478747081,0.3291151976583799,0.2054562419919413,1.3318036790271377,3
-0.0317306801968112,-1.6406844524068536,-0.0539129207716806,0.3340848906232231,0.2136098682045017,1.373515329439351,3
-0.0053766324789251,-1.6286875063569228,-0.0692871858934821,0.33097882870347,0.2238018592237001,1.4095390134027213,3
0.0209774152389608,-1.621655398149689,-0.0848907773809593,0.3216606531221468,0.2329746845381804,1.4322908170705118,3
0.0678692698098771,-1.614619900974645,-0.1126543054221638,0.3092363952651978,0.2370514809458597,1.4436667189044077,3
0.0938359914439683,-1.608828154986133,-0.1287165496409917,0.2974333681124849,0.2350130827420201,1.4531466112128275,3
0.1124371678780238,-1.600555684560178,-0.1447787938598199,0.2893576132278884,0.2319554687376597,1.462626534585039,3
0.1271650834741295,-1.5918697600613154,-0.1583165683319089,0.2887363927015887,0.22991707053382,1.4664184915084075,3
0.1531318051082205,-1.5931101222800372,-0.1709370373412959,0.3260091357386268,0.2217634610198605,1.4531466112128275,3
0.1949852457858367,-1.6022095008518067,-0.1817210157009702,0.356448514053986,0.206475457792462,1.4360827739938804,3
0.2438169055796935,-1.6100719061726654,-0.1851627909104114,0.3800545683594118,0.185072209857742,1.4190189367749324,3
0.2825717375869499,-1.6183443765986203,-0.1821796684323212,0.3856454818505548,0.1626497628211022,1.40005909003051,3
0.3042746974953306,-1.640270998333946,-0.1826383211636723,0.3682515412066988,0.1483809419970227,1.373515329439351,3
0.3046620235791257,-1.6501972850515303,-0.1808037102382682,0.33097882870347,0.1453233446912632,1.3431795808610332,3
0.3097004374724259,-1.6456492902495508,-0.1789672195885555,0.2856303409597719,0.1504193402008624,1.3090519064231378,3
0.3205519174266162,-1.6071743386945043,-0.183557506350683,0.2502212595016331,0.1595921655153426,1.2654442775492405,3
0.3395404199444667,-1.5434651328208742,-0.1964073017257454,0.2483576182786066,0.168764974131222,1.2085647062521825,3
0.3569827929311028,-1.4855476729357555,-0.2129281986759245,0.3875091128956449,0.2054562419919413,1.0967016974387034,3
0.3732600128623883,-1.4673455268244058,-0.2312837065515076,0.4887666235934724,0.2421474931540598,1.054990078090281,3
0.3968996031897441,-1.4909259648513602,-0.2551486863762285,0.5682817517427098,0.273742748806579,1.026550307973647,3
0.4279015639131699,-1.541397862456338,-0.2813069298577046,0.6080393158173285,0.2798579601166989,1.0208623725885948,3
0.4693708533109565,-1.687018420314948,-0.3182491516988548,0.6012059816294588,0.2635507243901789,1.0379262098075426,3
0.4895245088841575,-1.7139064909251602,-0.3290331300585291,0.5502666007504906,0.2370514809458597,1.054990078090281,3
0.5224662748305237,-1.6919832581576455,-0.3405069672395387,0.4676454208594364,0.212590652403981,1.0663659799241765,3
0.5577319972796597,-1.653921760675506,-0.350373640136511,0.3726000340011151,0.190168222065942,1.0796378602197558,3
0.5844733710813408,-1.622068852222596,-0.3508322928678621,0.2868727616564986,0.1626497628211022,1.1004936543620716,3
0.5953248510355311,-1.612966084683016,-0.3411949463365652,0.1887212925225514,0.1167857030431043,1.1630611299803917,3
0.5864100015003157,-1.6245495766600395,-0.3310989470739173,0.1663576690917886,0.1229009143532242,1.1933968474949188,3
0.5763331737137152,-1.627030301097483,-0.3285744773271782,0.1582819142071922,0.1443041455893433,1.2218366486753431,3
0.6123767231344067,-1.619584738817342,-0.3416535990679161,0.1632516071720355,0.1626497628211022,1.2370045384963972,3
0.6437691847455931,-1.61089881431848,-0.3432607633519535,0.1769182653698385,0.1616305637191823,1.2313165720475543,3
0.6701200576595135,-1.6096584520997583,-0.3448660479116818,0.194933396006185,0.1422657306869028,1.2199406702136588,3
0.6922103436516893,-1.612966084683016,-0.3512909455992131,0.2104636954270144,0.1147472881406638,1.2085647062521825,3
0.7069382592477951,-1.6179309225257137,-0.3620749239588874,0.2172970296148841,0.0821328333862247,1.1915008690332347,3
0.7158531087830105,-1.6324085930130876,-0.3717122704901843,0.2303424774643238,-0.0004224942524924,1.1251414364915464,3
0.7290285452399707,-1.6568193281536672,-0.3765318836179871,0.2433879253137634,-0.0462865707290911,1.108077599272599,3
0.7406546773617511,-1.680813220253529,-0.3758439045209606,0.2564333731632031,-0.0860354358955699,1.119453501106494,3
0.7422039816969311,-1.69115296104402,-0.3703363122961313,0.2750697345037857,-0.1094770820341296,1.1573731635315485,3
0.7139133035600702,-1.6874318743878554,-0.3877745147090123,0.3055091229970813,-0.1084578829322097,1.200980792405446,3
0.7154657826992155,-1.6936370744492746,-0.4079683929586168,0.3427818558561829,-0.0921506472056898,1.227524615124186,3
0.7336796330494759,-1.7126661287064386,-0.4277017387525615,0.3670091205099721,-0.0717666150714904,1.2351085289709225,3
0.7546079407902669,-1.720525145059487,-0.4405496544033153,0.363903058590219,-0.0605553915531705,1.2351085289709225,3
0.7720471389729374,-1.720938599132394,-0.4389443698435868,0.3365697320166766,-0.0595361924512507,1.2389005169580816,3
0.7925881206299333,-1.7329355451823247,-0.4368785528281986,0.273827313807059,-0.0758434114791698,1.2863001027553471,3
0.815453058789699,-1.741624858648998,-0.4499576745689367,0.2458727768851532,-0.0901122490018501,1.31473984180819,3
0.8344415613075494,-1.72921445852616,-0.4637266551310099,0.2172970296148841,-0.1084578829322097,1.316635820269874,3
0.8778474811243111,-1.6460627443224582,-0.4751986125877107,0.1924485444347951,-0.1308802965716479,1.2863001027553471,3
0.8948993532231867,-1.6055205224028752,-0.4786403877971518,0.1874788718258247,-0.1563603409140473,1.240796495419766,3
0.8995504410326918,-1.5918697600613154,-0.4832306745592792,0.2104636954270144,-0.1767443730482466,1.1952928259566027,3
0.9026522245070172,-1.5960043007903877,-0.4891950397911506,0.2514636801983598,-0.1879555965665665,1.1630611299803917,3
0.9022648984232224,-1.5997287764143635,-0.4969977753970436,0.2924636649697052,-0.191013193872326,1.1384133478509169,3
0.904588854925992,-1.6121391765372015,-0.5061764691969896,0.3527212417858694,-0.1991668200848864,1.0929097405153354,3
0.9138910305450024,-1.6415113605526677,-0.5119115080631855,0.363903058590219,-0.2164932382147254,1.0796378602197558,3
0.9166023131315674,-1.67460802019211,-0.5165017948253129,0.356448514053986,-0.2358580879456057,1.0891177525281763,3
0.9111765731544724,-1.6990153663648793,-0.5288929374690244,0.3378121628913397,-0.2470693114639257,1.11755752264481,3
0.8948993532231867,-1.6737777230784847,-0.5759311585728225,0.3204182222474838,-0.245030913260086,1.1384133478509169,3
0.8964486575583664,-1.6617807770285538,-0.6007134438602456,0.3111000466661606,-0.2348388888436859,1.1327253814020737,3
0.9204787487734828,-1.6559890310400422,-0.6163151556234139,0.3098576056135612,-0.2277044784316462,1.0985976759003877,3
0.9693104085673396,-1.6576462362994815,-0.6174636671761002,0.3098576056135612,-0.2317812915379263,1.056886056551965,3
1.0324794830695416,-1.6684028201306909,-0.6032360338826759,0.3098576056135612,-0.2552229209778852,1.0322382744224905,3
1.0758854028863034,-1.688672236606577,-0.5818974035290028,0.2868727616564986,-0.3612198780565612,1.056886056551965,3
1.0848002524215186,-1.700669182656508,-0.5637693422947865,0.266372769270826,-0.4223719744591592,1.0891177525281763,3
1.0731741202997385,-1.690739506971113,-0.5502315678226974,0.2427667149654001,-0.4651784536299984,1.1213494795681784,3
1.0576715525360425,-1.6733642690055777,-0.5447239755978682,0.2172970296148841,-0.4865816848661176,1.1478932401593371,3
1.0255044387572665,-1.6208251010360637,-0.5380697515446615,0.1930697547831585,-0.4876008839680374,1.168749065365444,3
1.0193040466125811,-1.5889721925831544,-0.5291222638346998,0.1731909931017219,-0.4692552500376777,1.1839169241227074,3
1.0363559187114566,-1.561667278932224,-0.5210902018631314,0.153933421412776,-0.4386791934870783,1.1933968474949188,3
1.0654212490159076,-1.523195716344988,-0.5167311211909883,0.1328122085008035,-0.4131991658432798,1.1952928259566027,3
1.098363014962274,-1.482240040352498,-0.5151239569069511,0.1147970676865206,-0.40096874322304,1.1820209456610231,3
1.124329736596365,-1.459486510471358,-0.5119115080631855,0.1005091889624179,-0.4121799500427591,1.1308294029403896,3
1.1344065643829653,-1.4557620348473823,-0.5086990592194198,0.1005091889624179,-0.4295063848711989,1.087221774066492,3
1.12975547657346,-1.4545216726286605,-0.5022741615318886,0.1054788819272611,-0.4468328196996387,1.030342295960806,3
1.1127036044745846,-1.480586224060869,-0.4839186536563056,0.1166606987316107,-0.4580440265193578,0.9715668083296451,3
1.116189539228739,-1.5248495326366172,-0.4765764505060724,0.1247364536162071,-0.462120839625638,0.9260632009940636,3
1.123555084428775,-1.5484299706635714,-0.4699203467285569,0.122872822571117,-0.4641592378294777,0.8900395170306935,3
1.1289808244058703,-1.536846478686548,-0.4696910203628814,0.1160394883832473,-0.4712936482415174,0.8559118115290073,3
1.13866715130471,-1.5107853162221498,-0.4793283668941783,0.1147970676865206,-0.4926969295734391,0.808512287859323,3
1.158820806877911,-1.488858694486824,-0.4944733056503044,0.1247364536162071,-0.5844250825266365,0.6568336070953151,3
1.1766473311443766,-1.47438102399945,-0.5070937746596914,0.1241152432678437,-0.6455771121348312,0.5677223708858363,3
1.1700596129158962,-1.461140326762987,-0.5109942026004834,0.1259788844908702,-0.6995948148239902,0.4937790555612024,3
1.136730520885735,-1.4487299266401483,-0.498603059956772,0.1340546393754666,-0.7230364442639491,0.4520674051489891,3
1.0537951168941275,-1.4855476729357555,-0.4573017574434787,0.142130394260063,-0.7036716112316697,0.4444834913022527,3
1.0255044387572665,-1.5202981488668266,-0.4490403691062347,0.1464788768765429,-0.6455771121348312,0.4729232614188864,3
1.015040284886871,-1.5273336460418712,-0.4455985938967936,0.1458576665281795,-0.5640410503924372,0.5279067610628885,3
1.0262790909248565,-1.522782262272081,-0.4444519620684162,0.1384031219919465,-0.4804664735559977,0.5923701840791018,3
1.0580588786198375,-1.5248495326366172,-0.4428447977843789,0.1266000948392336,-0.4131991658432798,0.6473536837231038,3
1.097588362794684,-1.5169905162835688,-0.4364199000968478,0.0930546444261848,-0.3693734875705208,0.6701054873908945,3
1.1223899313734245,-1.4900990567055457,-0.428848370580939,0.0793879964063182,-0.3836423083946003,0.6359777818892085,3
1.1216152792058347,-1.4756213862181715,-0.4318314930590292,0.0713122415217218,-0.4019879423249599,0.590474174553627,3
1.0615448133739922,-1.5343657542491045,-0.4451399411654427,0.0694486002986954,-0.4131991658432798,0.5430745887563615,3
1.0379052230466368,-1.5682859330665504,-0.4410101868589751,0.076281934486565,-0.4142183649451996,0.5127389023056249,3
1.0262790909248565,-1.6063474305486898,-0.4357319209998212,0.0893273721580683,-0.4030071414268797,0.5070509358567818,3
1.022789981366736,-1.6448189931359258,-0.4348146155371193,0.1011303993107812,-0.3816039101907605,0.5335947275117315,3
1.0204660248639663,-1.658059690372389,-0.4410101868589751,0.1005091889624179,-0.3551046667464413,0.5809942822452064,3
1.0235678083382918,-1.649783830978623,-0.4472057581808308,0.0514334493064761,-0.3112789884736823,0.6720014658525788,3
1.0375178969628418,-1.626616847024576,-0.4453692675311181,0.0191304297680904,-0.3041445780616426,0.6947532695203695,3
1.0615448133739922,-1.5960043007903877,-0.4350439419027948,-0.0057180452340621,-0.3102597893717625,0.7080251498159489,3
1.083247773282373,-1.559600008567688,-0.4217354937963813,-0.0200059137802284,-0.3275862075016014,0.7042331928925806,3
1.0917752967337937,-1.4905125107784531,-0.4022314743681121,-0.0200059137802284,-0.3469510405338809,0.6795854107631059,3
1.098363014962274,-1.464037894241148,-0.3941994123965436,-0.0069604659307888,-0.3622390771584811,0.6435617267997356,3
1.0987503410460688,-1.459899964544265,-0.3870865356119859,0.0147819471516105,-0.3663158735661604,0.6132259782214178,3
1.0816984689471931,-1.4872048781951954,-0.3831861076711938,0.0371455807603097,-0.3571430649502811,0.5961621410024701,3
1.0596081829550177,-1.536846478686548,-0.3804323115587792,0.0520546596548394,-0.3377782319180015,0.5942661625407858,3
1.0479820508332371,-1.590626008874783,-0.3724021293115195,0.0408728530284262,-0.2878373757323243,0.6208099231319448,3
1.048369376917032,-1.6319951389401806,-0.3597816603021325,0.0135395264548838,-0.2705109576024853,0.649249662184788,3
1.0592208568712225,-1.6464761983953653,-0.3496856610394847,-0.0212483446548915,-0.2633765471904456,0.6795854107631059,3
1.0704596629092078,-1.631168230794366,-0.3446367215460063,-0.0535513540153407,-0.2643957462923654,0.6966492479820535,3
1.063097292513138,-1.5587731004218734,-0.3450953742773573,-0.0752937772756766,-0.2654149453942853,0.7004412049054218,3
1.0541824429779223,-1.5211250570126411,-0.3432607633519535,-0.0765361979724033,-0.2592997340841654,0.6966492479820535,3
1.0541824429779223,-1.502509456828384,-0.3416535990679161,-0.0566574159350939,-0.2460501123620058,0.6947532695203695,3
1.059995509038813,-1.5078877487439886,-0.3446367215460063,-0.0262180376197348,-0.228723677533566,0.7004412049054218,3
1.0650339229321129,-1.523195716344988,-0.3453247006430328,-0.0007483522692188,-0.2134356409089659,0.7042331928925806,3
1.071234315076798,-1.5343657542491045,-0.3432607633519535,0.0079486231416772,-0.1930516087747666,0.7061291713542649,3
1.0844129263377238,-1.5343657542491045,-0.3439487424489799,-0.0057180452340621,-0.1889747956684863,0.709921128277633,3
1.096426384543299,-1.523195716344988,-0.3462438858300435,-0.0231119756999816,-0.1930516087747666,0.7156090947264759,3
1.1002996453812488,-1.5054070243065452,-0.3425709045306181,-0.0417483268626278,-0.2001860191868063,0.7194010516498442,3
1.091387970649999,-1.4425247265787295,-0.3301816416112154,-0.0566574159350939,-0.2022244173906459,0.7156090947264759,3
1.0863495567566988,-1.406533888428937,-0.3308696207082419,-0.0603846882032104,-0.1920324096728467,0.7042331928925806,3
1.082473121114783,-1.3866779260259583,-0.3292624564242046,-0.0492028713988609,-0.1716483608400466,0.6928572910586852,3
1.0871242089242883,-1.390399012682123,-0.3219202532739715,-0.0287028790131882,-0.146168333196248,0.6757934227759469,3
1.103014102771779,-1.4098449099800054,-0.3200856423485675,-0.0088240969758788,-0.1257842843634479,0.6511456406464721,3
1.1111511253354391,-1.4342522561527746,-0.3278864982301517,0.0036001405251974,-0.1166114924461693,0.6075380428363655,3
1.110376473167849,-1.443351634724544,-0.3352287013803849,0.0048425612219241,-0.118649890650009,0.5866822176302587,3
1.1127036044745846,-1.4450088399839836,-0.3398189881425123,0.0104334645351307,-0.1217074879557685,0.5734103373346794,3
1.1111511253354391,-1.4942369864024287,-0.3457833533743837,0.0141607368032472,-0.1268035001639685,0.5790982727197317,3
1.1099891470840542,-1.5120256784408717,-0.3441780688146554,0.0029789199988976,-0.1329187114740884,0.5961621410024701,3
1.1123162783907896,-1.5041666620878236,-0.3423415781649426,-0.0231119756999816,-0.1380147069836876,0.6189139446702608,3
1.1196786487868595,-1.470656548375474,-0.3405069672395387,-0.0535513540153407,-0.141072320988048,0.6454577052614198,3
1.1324667591600248,-1.425149488613194,-0.3386704765898261,-0.0740513464010134,-0.1431107191918877,0.6738974443142628,3
1.1406069565276504,-1.3866779260259583,-0.3411949463365652,-0.0815058909372465,-0.1390339060856075,0.6985452264437376,3
1.1460326965047458,-1.3635109420719107,-0.3473905176584209,-0.0790210495437931,-0.1339379105760083,0.6890653030715265,3
1.158046154710321,-1.351927450094887,-0.3545033944429787,-0.0771574083207666,-0.1329187114740884,0.6776894323014216,3
1.1754853528929916,-1.3498567907625405,-0.3618455975932119,-0.0759149876240399,-0.141072320988048,0.6757934227759469,3
1.199902770191903,-1.3473760663250969,-0.3620749239588874,-0.0759149876240399,-0.158398739117887,0.6795854107631059,3
1.206877814504178,-1.3419977744094922,-0.351749598330564,-0.0821271012856099,-0.1808211861545268,0.6833773676864742,3
1.2076524666717676,-1.3258628986626784,-0.3428021106206024,-0.0926877077415961,-0.2032436164925658,0.6814813892247898,3
1.2041633571136474,-1.3039396658951636,-0.3382118238584751,-0.102627103849219,-0.2215892671215263,0.6682095089292105,3
1.2014520745270825,-1.2977344658337444,-0.3317869261709439,-0.1057331657689721,-0.2348388888436859,0.6511456406464721,3
1.206877814504178,-1.3072472984784214,-0.3191664571615568,-0.1107028587338154,-0.2429924983576455,0.6397697388125767,3
1.215014837067838,-1.314279406685655,-0.3012696020173249,-0.1193998137888387,-0.2409541001538058,0.6454577052614198,3
1.2188912727097534,-1.3068338444055143,-0.2836001935144595,-0.1280967790217985,-0.2368772870475256,0.6530416501719469,3
1.2111415762298885,-1.298561373979559,-0.26455670654185,-0.1324452718162148,-0.2297428766354859,0.6606255640186833,3
1.2041633571136474,-1.304353119968071,-0.2624908895264619,-0.1349301132096682,-0.2226084662234461,0.6606255640186833,3
1.2002900962756975,-1.3072472984784214,-0.2592784406826962,-0.1386573854777847,-0.2175124540152461,0.6549376286336309,3
1.199902770191903,-1.300628644344095,-0.2553780127419042,-0.1436270784426279,-0.2144548400108857,0.6473536837231038,3
1.193699203243252,-1.2915258768045148,-0.2540001748235425,-0.1448695093172911,-0.2144548400108857,0.6511456406464721,3
1.1824603972052667,-1.2799423848274911,-0.2553780127419042,-0.1361725440843313,-0.2083396287007658,0.6795854107631059,3
1.178587136367317,-1.2580191520599764,-0.2565246445702816,-0.1305816305931883,-0.1971284051824459,0.6890653030715265,3
1.1840128763444122,-1.2303007843361389,-0.2535415220921915,-0.1268543583250718,-0.1818403852564467,0.6928572910586852,3
1.191375246740482,-1.2079607085279058,-0.2498704205170749,-0.1256119376283451,-0.1696099626362069,0.6871693246098423,3
1.206877814504178,-1.1893451083436486,-0.2507877259797767,-0.1249907272799817,-0.163494751326087,0.6795854107631059,3
1.2165673162069832,-1.177348162293718,-0.2544588275548933,-0.1293392098964616,-0.1645139504280068,0.6701054873908945,3
1.2235423605192584,-1.15128699982932,-0.2574419500329834,-0.1380361751294214,-0.1706291617381267,0.6587295855569991,3
1.2250916648544383,-1.126049356542926,-0.2597370934140471,-0.1454907196656544,-0.179801987052607,0.6454577052614198,3
1.2204405770449331,-1.1194307024085994,-0.2597370934140471,-0.1485967815854076,-0.1889747956684863,0.6321858249658402,3
1.214240184900248,-1.1297738321669015,-0.255836665473255,-0.1361725440843313,-0.2022244173906459,0.6075380428363655,3
1.211528902313683,-1.1550080864854848,-0.255836665473255,-0.1243695169316183,-0.2042628155944856,0.6113299997597337,3
1.2111415762298885,-1.1876912920520195,-0.2622615631607863,-0.1175361827437487,-0.2063012304969262,0.6340818034275244,3
1.199902770191903,-1.2211980167965586,-0.269833092676695,-0.118157393092112,-0.2144548400108857,0.6720014658525788,3
1.1975756388851675,-1.222441767983091,-0.2622615631607863,-0.1274755686734351,-0.2307620757374057,0.713713116264792,3
1.2018394006108777,-1.214579362662232,-0.2498704205170749,-0.1467331403623811,-0.2572613358803257,0.7497368002281621,3
1.2006774223594925,-1.1967906706237894,-0.2342668290295977,-0.1734452565875602,-0.2919141554414028,0.7876564937170071,3
1.1952516823823975,-1.168248783721948,-0.2143041568699774,-0.2020210140357657,-0.3275862075016014,0.8274721346037456,3
1.1979629649689625,-1.126462810615833,-0.1936535056133308,-0.2349452235666418,-0.3744694997787208,0.8578077899906914,3
1.2030013788622629,-1.085093680550436,-0.1755254443791145,-0.2330815925215518,-0.37956549528832,0.8483278976822709,3
1.1983502910527573,-1.0540676802433406,-0.1606117117129727,-0.2231421964139289,-0.3805847110888407,0.8312640915271138,3
1.187886137182362,-1.0280065177789428,-0.1436321620314425,-0.2069907070006089,-0.3805847110888407,0.8104082663210072,3
1.1824603972052667,-1.0114581879592217,-0.09636273483766,-0.1877331353116629,-0.3805847110888407,0.7914484506403753,3
1.186724158930977,-1.0155961176561044,-0.075482757215338,-0.1715816153645337,-0.37956549528832,0.7800725488064799,3
1.1847875285120022,-1.0114581879592217,-0.0624036354746,-0.1616422294348472,-0.3765078979825605,0.7762805918831117,3
1.1743233746416064,-0.9994612419092904,-0.0580426750781481,-0.1529452642018875,-0.3714118857743605,0.7762805918831117,3
1.1681229824969217,-0.9944964040665936,-0.0598791657278609,-0.1423846577459012,-0.3612198780565612,0.7800725488064799,3
1.1735487224740169,-0.9969771285040366,-0.062862288205951,-0.1349301132096682,-0.3275862075016014,0.7800725488064799,3
1.1812984189538815,-0.9928425877749644,-0.0651555518627059,-0.1423846577459012,-0.3143365857794418,0.7838645057298482,3
1.1828477232890615,-0.9866373877135453,-0.0642382464000038,-0.1541876848986142,-0.3122981875756022,0.7933444291020595,3
1.1557221982075512,-0.9717428741854534,-0.0479466758155003,-0.1690967739710803,-0.3194325979876419,0.806616309397639,3
1.1421562608628306,-0.9568517496251718,-0.0330329431493584,-0.1821422319984563,-0.3337014188117213,0.8217841681549025,3
1.1390544773885052,-0.938232760473104,-0.0181173307589077,-0.1920816281060792,-0.3418550450242817,0.8350560484504821,3
1.1421562608628306,-0.9072067601660088,-0.0073333523992334,-0.200778593339039,-0.3398166301218412,0.8445359718226932,3
1.1456453704209506,-0.8699755597974942,-0.0006791283460267,-0.2069907070006089,-0.3286054233021221,0.8483278976822709,3
1.1456453704209506,-0.8360519920122377,0.001157362303686,-0.2100967689203621,-0.2939525536452425,0.8521198546056391,3
1.1433182391142154,-0.8066798079967714,0.0039111584161007,-0.2001573829906756,-0.2786645671164449,0.8559118115290073,3
1.1448707182533606,-0.7872372996666999,0.0075822599912173,-0.1883543558379627,-0.2664341444962051,0.8540158330673233,3
1.1487439790913103,-0.7719293320657005,0.009877403372281,-0.1777937392040401,-0.2582805349822455,0.8483278976822709,3
1.1495186312589003,-0.7433840561960483,0.015153789507126,-0.1709604050161703,-0.2572613358803257,0.8350560484504821,3
1.1444802173656,-0.7251819100846987,0.019054217447918,-0.1641270810062371,-0.2643957462923654,0.814200254308166,3
1.1390544773885052,-0.7082201261920703,0.0243324833070719,-0.1541876848986142,-0.2745877540101647,0.7876564937170071,3
1.1316921069924348,-0.7011880179848367,0.026856953053811,-0.1386573854777847,-0.2837605793246449,0.7573207451386892,3
1.125104388763955,-0.7078066721191629,0.0252497887697737,-0.1193998137888387,-0.2868181766304045,0.7288810060858462,3
1.1223899313734245,-0.7210439803878157,0.0215786871946571,-0.0877180147767529,-0.2756069531120846,0.6966492479820535,3
1.1223899313734245,-0.7305602020003034,0.0199734026349289,-0.0783998290174933,-0.2694917418019647,0.6947532695203695,3
1.1266536930991349,-0.7280794775628597,0.0236445042100454,-0.0765361979724033,-0.2654149453942853,0.7023372144308966,3
1.1336319122153753,-0.7144253262534894,0.0296107491662257,-0.0827483218119096,-0.2664341444962051,0.713713116264792,3
1.1421562608628306,-0.663129909470508,0.0346578089353951,-0.0939301284383228,-0.2705109576024853,0.7231930396370032,3
1.1394449782762657,-0.6275525253936226,0.0284622376135394,-0.104490734894309,-0.272549355806325,0.726985027624162,3
1.1429309130304206,-0.5923885953896444,0.0218080135603327,-0.1094604380370886,-0.2684725427000448,0.726985027624162,3
1.151458436481841,-0.5712888818001332,0.0204320553662797,-0.1094604380370886,-0.2592997340841654,0.726985027624162,3
1.156109524291346,-0.5659105898845286,0.0197440762692533,-0.1069755864656988,-0.2470693114639257,0.7288810060858462,3
1.156109524291346,-0.562186114260553,0.0153831158728014,-0.1169149825733217,-0.233819689741766,0.7156090947264759,3
1.1545570451522007,-0.548535351918993,0.0096461972822967,-0.1237482964053186,-0.2368772870475256,0.6909613125970012,3
1.155331697319791,-0.5307466598805504,0.0084995654539193,-0.1212634550118652,-0.245030913260086,0.6644175209420515,3
1.1464200225885408,-0.5286793895160142,0.0153831158728014,-0.1088392276887253,-0.2572613358803257,0.6435617267997356,3
1.12704101918293,-0.5336442273587116,0.0169902801568387,-0.0926877077415961,-0.272549355806325,0.6283938369786813,3
1.1123162783907896,-0.5361249517961549,0.0218080135603327,-0.0765361979724033,-0.2878373757323243,0.6132259782214178,3
1.1010774723528045,-0.5336442273587116,0.0328231980099913,-0.064111960471327,-0.3061829762654823,0.5923701840791018,3
1.0859622306729035,-0.5307466598805504,0.0488835625045106,-0.0541725745416405,-0.3265670083996816,0.5715143588729952,3
1.068523032490233,-0.5373653140148767,0.0660943182760251,-0.044854388782381,-0.3500086545382413,0.5222188256778361,3
1.049918681252212,-0.5530867356887832,0.0800907454794649,-0.052308933318614,-0.3500086545382413,0.48809112017615,3
1.034806614376277,-0.5626029573012709,0.0881228074510333,-0.0628695397746003,-0.3449126423300413,0.4463794697639368,3
1.0286030474276262,-0.5654971358116214,0.0908747238391392,-0.0690816534361702,-0.3428742441262016,0.4084598073388825,3
1.0193040466125811,-0.5849396441416931,0.1007413967361115,-0.0684604430878069,-0.3438934432281214,0.3857080036710918,3
1.015427610970666,-0.597766887305249,0.1151983563952112,-0.0616271190778736,-0.3500086545382413,0.3819160467477235,3
1.008452566658391,-0.6068662658770186,0.1294241099643266,-0.050445302273524,-0.3571430649502811,0.3913959390561441,3
0.9983757388717904,-0.6076931740228331,0.1411272735110118,-0.038642275120811,-0.3591814631541207,0.4046678504155142,3
0.9917880206433102,-0.5932155035354589,0.1507646200423087,-0.0262180376197348,-0.3510278536401612,0.4160437211856189,3
0.9944993032298752,-0.5787344440802739,0.1560410061771537,-0.0088240969758788,-0.3265670083996816,0.4255236445578302,3
0.9995377171231752,-0.575013357424109,0.1587948022895682,-0.0044756143593989,-0.3153558015799625,0.4293156325449891,3
0.9987630649555852,-0.5787344440802739,0.1629245565960358,-0.0057180452340621,-0.3051637771635624,0.4312116110066732,3
0.993724651062285,-0.5812185574855279,0.1682028224551897,-0.0144150104670218,-0.2980293667515227,0.4274196230195143,3
0.9894608893365748,-0.5808051034126208,0.1727912294930083,-0.0262180376197348,-0.2949717527471623,0.4198357091727778,3
0.9886862371689848,-0.5733561521646693,0.1698099867392268,-0.0367786338977846,-0.2959909685476831,0.4103557858005666,3
0.9724090172376992,-0.5394359733472235,0.1849530457710443,-0.0442331784340176,-0.3021061798578029,0.4008758624283554,3
0.9580716025293542,-0.5261952761107602,0.1973441884147559,-0.0330513616296681,-0.3000677649553624,0.4008758624283554,3
0.9445056651846336,-0.5154420812473618,0.2044570651993134,-0.0050968348856987,-0.2745877540101647,0.3762281113626711,3
0.933266859146648,-0.5042720433432453,0.2088161458714566,0.0029789199988976,-0.2572613358803257,0.3534763076948804,3
0.924355184415398,-0.5009610217921767,0.2134064326335839,0.0129183161065205,-0.2419732992557256,0.3307245040270897,3
0.9150530087963876,-0.5121310596962932,0.217765513305727,0.0247213432592334,-0.2307620757374057,0.3117646572826672,3
0.9022648984232224,-0.5419166977846669,0.2241904109932581,0.0346607291889199,-0.2256660802278065,0.2947008200637195,3
0.8890862871622964,-0.5597053898231096,0.2267148807399975,0.0402516325021265,-0.2266852793297263,0.2776369517809811,3
0.8654466968349409,-0.575013357424109,0.2292393504867366,0.0427364840735163,-0.2297428766354859,0.2662610499470857,3
0.8375433447818748,-0.5861833953282254,0.229468676852412,0.043978904770243,-0.228723677533566,0.2605731145620334,3
0.815453058789699,-0.5990072495239706,0.2235024318962317,0.0483273873867229,-0.2185316531171659,0.2586771361003492,3
0.8065382092544837,-0.605625903658297,0.2127184535365574,0.0595092041910725,-0.1838787834602863,0.2605731145620334,3
0.8057635570868936,-0.5956962279729021,0.2039984124679626,0.0607516350657356,-0.1706291617381267,0.2567811576386651,3
0.8034396005841236,-0.5795613522260884,0.2005566372585214,0.0619940557624623,-0.1614563531222473,0.2454052558047698,3
0.7956867293002932,-0.5617726601876457,0.204686391564989,0.0675849692536053,-0.1543219427102076,0.2245494305986632,3
0.7453057651712565,-0.5361249517961549,0.2143237380962859,0.0781455655316551,-0.1390339060856075,0.188525746635293,3
0.725929936569611,-0.5386056762335983,0.2074401876774036,0.0930546444261848,-0.1115154802379693,0.1373342039146591,3
0.7394926991103662,-0.5522598275429689,0.2003273108928458,0.1141758573381573,-0.0819586227892897,0.0861426611940253,3
0.7677833772472271,-0.5824589197042497,0.1945903923023411,0.1377819014656467,-0.0625937897570102,0.053910965217814,3
0.7867750545690431,-0.6163824874895063,0.1890828000775119,0.1570394833325291,-0.0564785784468903,0.0444310418456027,3
0.7972360336354729,-0.6407898336622752,0.1865602100550814,0.1713273620566319,-0.0687090010671301,0.0520149556923392,3
0.8057635570868936,-0.6453412174320653,0.1904606379958736,0.1682213001368787,-0.0809394236873698,0.0520149556923392,3
0.8131259274829636,-0.6341711795279488,0.2012446163555478,0.1644940278687622,-0.0921506472056898,0.0444310418456027,3
0.8166150370410838,-0.6250684119883686,0.2145530644619613,0.1595243349039189,-0.0992850576177295,0.0311591615500232,3
0.8042142527517137,-0.6523733256392987,0.2329104520618532,0.1545546419390757,-0.1003042567196493,0.021679238177812,3
0.7918102936583779,-0.6767806718120679,0.2439237567872029,0.1477212975732696,-0.0921506472056898,0.0178872812544438,3
0.7832859450109227,-0.7016014720577441,0.2544784087812018,0.1408879633853999,-0.0778818263816103,0.0235752166394961,3
0.7794095093690075,-0.7094638773786027,0.2641157553124986,0.1352970600721933,-0.0605553915531705,0.0273671735628644,3
0.7739837693919123,-0.7069797639733487,0.2687060420746261,0.1328122085008035,-0.0422097576228109,0.0273671735628644,3
0.7631322894377219,-0.7094638773786027,0.2650349404995094,0.1446152356535164,-0.0106145186688925,0.0046154009588643,3
0.7480202225617868,-0.717736347804558,0.2521851451244469,0.1564182729841658,0.0016159039513472,-0.0143444457855581,3
0.7313556765467062,-0.7330443154055574,0.234286410255906,0.1688425104852421,0.0118079283677473,-0.0276163571449283,3
0.7181770652857804,-0.7562079103917937,0.2184534924027535,0.1781606962445016,0.013846326571587,-0.0238243691577693,3
0.7034491496896746,-0.7818590077510952,0.2106526365211693,0.1775394757182018,0.0067119161595473,0.0008234129717054,3
0.7034491496896746,-0.7839262781156313,0.2122598008052064,0.1632516071720355,-0.0085761037664519,0.0330551400117074,3
0.7096527166383254,-0.7777210780542122,0.2147823908276369,0.1408879633853999,-0.0259025385948917,0.0595989006028663,3
0.7185643913695754,-0.7582785697241406,0.2214366148808436,0.1147970676865206,-0.0432289567247307,0.07476675936013,3
0.7224408270114906,-0.7363519479888151,0.2287806977553856,0.0744182932635386,-0.0564785784468903,0.103206498412973,3
0.7270919148209959,-0.7284929316357672,0.2313032877778159,0.0651001176822155,-0.0564785784468903,0.1240623236190796,3
0.7379433947751863,-0.7404898776856981,0.2319931465991511,0.0514334493064761,-0.0564785784468903,0.1449181488251862,3
0.7515061573159416,-0.7537271859543505,0.2358935745399433,0.0290698258757133,-0.0585169933493308,0.1600860075824499,3
0.7561572451254468,-0.7260088182305129,0.2446117358842295,0.0073274127933139,-0.0595361924512507,0.161981986044134,3
0.7499568529807618,-0.7073932180462558,0.2475948583623194,-0.0001271317429191,-0.0564785784468903,0.1525020626719228,3
0.741042003445546,-0.6982938394744864,0.2524144714901223,0.0098122541867673,-0.0503633671367704,0.135438225452975,3
0.7274792409047909,-0.713598418107675,0.259068695543329,0.0309334670987398,-0.0391521603170514,0.1164783787085525,3
0.7170150870343955,-0.7446278073825807,0.2629691234841212,0.0539183008778659,-0.0279409367987314,0.0994145414896048,3
0.7115893470573003,-0.7719293320657005,0.2599860010060311,0.0719334518700852,-0.0177489290809322,0.0842466827323412,3
0.7096527166383254,-0.7930290456552116,0.2508073072060852,0.068827389950332,-0.018768128182852,0.0823506732068664,3
0.7073255853315901,-0.8046125376322353,0.2397940024807353,0.0663425383789422,-0.0228449412891322,0.0804546947451823,3
0.7018998453544948,-0.8128850080581905,0.2315326141434915,0.0663425383789422,-0.0299793517011719,0.0842466827323412,3
0.6999632149355199,-0.8621131544766355,0.2326811256961776,0.0675849692536053,-0.0371137621132117,0.0975185630279207,3
0.6960867792936045,-0.8765942139318207,0.2381868381966982,0.0644789073338521,-0.0422097576228109,0.1164783787085525,3
0.6871751045623545,-0.8819725058474254,0.2409406343091127,0.0545395112262292,-0.0462865707290911,0.1392301823763433,3
0.6728345150500439,-0.883212868066147,0.2386473706523579,0.0377667911086731,-0.0513825829372911,0.167669952492977,3
0.6615957090120586,-0.8778345761505423,0.2363522272712943,0.0172667987230004,-0.0564785784468903,0.1999016484691883,3
0.6608210568444685,-0.8633569056631679,0.2368108800026452,-0.0075816762791521,-0.0564785784468903,0.2378213108942426,3
0.6662467968215637,-0.8434975542923785,0.2377281854653472,-0.0094453175021786,-0.0544401802430506,0.2397172893559268,3
0.6670214489891537,-0.8215743215248636,0.2358935745399433,-0.0063392555824254,-0.0544401802430506,0.2302373970475062,3
0.6639196655148284,-0.7950963160197476,0.2276321862026993,0.0036001405251974,-0.0534209811411308,0.2093815718413995,3
0.6596590785930836,-0.7711024239198859,0.1982614938774577,0.0209940709911169,-0.0544401802430506,0.1866297681736088,3
0.6526808594768431,-0.7872372996666999,0.1838064139426669,0.043978904770243,-0.0585169933493308,0.167669952492977,3
0.6402800751874727,-0.80999082954784,0.1679734960895143,0.063236476459189,-0.0656514037613706,0.1543980411336069,3
0.6278792908981023,-0.8302602460237261,0.152828557333388,0.0769031448349284,-0.0717666150714904,0.1487101057485545,3
0.623615529172392,-0.8550810462694022,0.1420445789737137,0.0862213204162515,-0.0809394236873698,0.1487101057485545,3
0.625939485675162,-0.8844532302848686,0.1365369867488844,0.0955394959975746,-0.1033618707240097,0.1562940506590816,3
0.6220662248372122,-0.906379852020194,0.1340143967264541,0.0967819166943013,-0.1115154802379693,0.1600860075824499,3
0.617415137027707,-0.9216878196211936,0.1351610285548315,0.0967819166943013,-0.1176306915480891,0.1733578878780294,3
0.6212915726696222,-0.938646214546011,0.1418152526080383,0.0905698030327314,-0.1268035001639685,0.188525746635293,3
0.617415137027707,-0.9489893443043133,0.1587948022895682,0.0824940583260714,-0.1400531218861281,0.1980056700075042,3
0.6026872214316012,-0.938646214546011,0.1631557626860201,0.0806304171030449,-0.1512643287058472,0.2017976269308724,3
0.5895117849746411,-0.9328544685574992,0.1643023945143975,0.0874637411129782,-0.1553411418121274,0.2017976269308724,3
0.5813715876070155,-0.9378193064001964,0.162007251133334,0.1023728301854443,-0.1502451296039274,0.1999016484691883,3
0.5805969354394255,-0.9469220739397772,0.1583361495582172,0.1210091813480906,-0.1431107191918877,0.2036936053925566,3
0.590286437142231,-0.9510600036366598,0.1613192720363074,0.1390243323403099,-0.1451491173957274,0.2302373970475062,3
0.596874155370711,-0.944854803575241,0.1711859449332798,0.13467584972383,-0.1512643287058472,0.2473012342664539,3
0.5949375249517361,-0.9291333819013342,0.1787574744491886,0.1266000948392336,-0.1512643287058472,0.254885179176981,3
0.5867973275841105,-0.906379852020194,0.1844943930396933,0.1191455503030005,-0.1441299182938075,0.2510931911898222,3
0.5895117849746411,-0.9051394898014724,0.1865602100550814,0.1123122161151308,-0.1339379105760083,0.2397172893559268,3
0.5945501988679412,-0.9072067601660088,0.1886241473461609,0.1073425231502876,-0.1237458861596082,0.2283413875220314,3
0.5964868292869162,-0.9154826195597744,0.1922952489212774,0.1042364612305344,-0.1135538951404098,0.222653452136979,3
0.5906737632260259,-0.9303737441200558,0.1927557813769373,0.1023728301854443,-0.1023426716220898,0.2245494305986632,3
0.5836987189137508,-0.940716873878358,0.1886241473461609,0.1061001024535609,-0.08501623679365,0.2378213108942426,3
0.5805969354394255,-0.944854803575241,0.1815112705616031,0.1147970676865206,-0.0809394236873698,0.2435092773430857,3
0.5825367406623659,-0.9527138199282889,0.1769228635237845,0.1266000948392336,-0.0839970376917302,0.2473012342664539,3
0.5937755467003513,-0.9597459281355224,0.1782988217178376,0.1352970600721933,-0.0952082612100501,0.2529891696515062,3
0.617027810943912,-0.9717428741854534,0.1913779434585756,0.1352970600721933,-0.1115154802379693,0.2567811576386651,3
0.6131513753019966,-0.9804321876521264,0.2017032690868989,0.1278425155359603,-0.1288418983678082,0.2624690930237175,3
0.6038491996829861,-0.9845667283811986,0.2150117171933123,0.117281909079974,-0.141072320988048,0.2719490163959288,3
0.5960995032031212,-0.9882912040051742,0.2262562280086465,0.1048576715788977,-0.1441299182938075,0.2833249182298241,3
0.5933850458125908,-0.9911853825155248,0.234286410255906,0.0911910133810948,-0.1369955078817678,0.2909088631403512,3
0.5949375249517361,-0.9866373877135453,0.2393353497493845,0.0644789073338521,-0.1023426716220898,0.2871168751531924,3
0.5960995032031212,-0.9783615283197796,0.242089145861799,0.0564031422713193,-0.0809394236873698,0.2852208966915082,3
0.5953248510355311,-0.9705025119667312,0.2434651040558521,0.0582667834943458,-0.0564785784468903,0.2852208966915082,3
0.5945501988679412,-0.9622266525729656,0.2439237567872029,0.0706910311733585,-0.0330369490069315,0.2833249182298241,3
0.6042365257667811,-0.971329420112546,0.2310739614121405,0.0899485825064316,-0.0116337177708123,0.2833249182298241,3
0.6154753318047664,-0.980018733579219,0.2218971473365033,0.1092061541953776,0.0026351197518679,0.2776369517809811,3
0.617802463111502,-0.9944964040665936,0.212489127170882,0.1216303916964539,0.0056927170576274,0.2719490163959288,3
0.6108274187992269,-1.012285096105036,0.2019325954525743,0.1272213051875969,0.0026351197518679,0.2643650714854016,3
0.6022998953478063,-1.0259358584465958,0.192524575286953,0.1278425155359603,-0.0034800915582519,0.2624690930237175,3
0.5941628727841463,-1.037105896350712,0.1902313116301981,0.1104485850700407,-0.0177489290809322,0.2871168751531924,3
0.5864100015003157,-1.0424841882663167,0.1950490450336922,0.0942970753008479,-0.0146913150765718,0.3079727003592989,3
0.5809842615232205,-1.039590009755966,0.1991806790644684,0.0775243551832918,-0.0024608924563321,0.3212445806548785,3
0.57090743373662,-1.0251089503007813,0.1929851077426127,0.0638576868075524,0.0169039405759473,0.3231405591165626,3
0.5670341728986702,-1.016423025801919,0.1831184348456404,0.0570243627976191,0.0383071718120665,0.3212445806548785,3
0.5639323894243449,-1.014352366469572,0.1723325767616573,0.0582667834943458,0.0586912039462658,0.3212445806548785,3
0.5592813016148396,-1.018076842093548,0.1587948022895682,0.0669637589052419,0.0739792238722651,0.3231405591165626,3
0.5592813016148396,-1.0205575665309912,0.1438810696234264,0.0787667860579549,0.0831520491867453,0.3174526237315102,3
0.568970803317645,-1.022628225863338,0.1312606006140394,0.0905698030327314,0.0821328333862247,0.3174526237315102,3
0.5743965432947403,-1.0246954962278745,0.123687191373822,0.0942970753008479,0.0546143908399856,0.3307245040270897,3
0.5674214989824652,-1.030900696289293,0.1177228261419505,0.0831152686744347,0.0434031840202665,0.3231405591165626,3
0.5554080407768899,-1.0296603340705714,0.1129032130141477,0.0694486002986954,0.0393263709139863,0.3117646572826672,3
0.5430040816835541,-1.0102178257405,0.1087734587076801,0.0607516350657356,0.0423839682197459,0.3098686788209831,3
0.5476551694930593,-1.0069068041894311,0.1048730307668879,0.0588879938427091,0.0515567935342261,0.3212445806548785,3
0.5693581294014401,-1.0035991716061736,0.1009707231017871,0.0619940557624623,0.0627680003539452,0.3345164609504579,3
0.6003632649288314,-0.9990477878363836,0.0975289478923459,0.063236476459189,0.0688832116640651,0.3439963843226692,3
0.6243901813399821,-0.9895315662238958,0.0975289478923459,0.0601304145394358,0.0637872161544659,0.3439963843226692,3
0.6325303787076075,-0.9820860039437552,0.1012019291917713,0.0576455731459824,0.0505375944323063,0.3307245040270897,3
0.6224535509210072,-0.9833263661624768,0.1048730307668879,0.0651001176822155,0.0352495578077061,0.2700530379342446,3
0.6061763309897217,-0.9866373877135453,0.1060196625952653,0.0769031448349284,0.0393263709139863,0.2378213108942426,3
0.5984234597058911,-0.9870508417864526,0.1046437044012125,0.096160706345938,0.0434031840202665,0.2188614952136108,3
0.6077256353249015,-1.0197306583851766,0.09477703150424,0.1185243399546371,0.0444223831221864,0.2150695072264519,3
0.616640484860117,-1.05117350173299,0.0938578463172293,0.1384031219919465,0.0423839682197459,0.2169655167519267,3
0.6205137456980667,-1.0772346641973878,0.09477703150424,0.1495849387962961,0.0372879727101467,0.2207574736752949,3
0.6212915726696222,-1.0933695399442016,0.095235684235591,0.1483425180995694,0.0291343464975863,0.2264454090603473,3
0.6181897891952969,-1.1061933941399469,0.0956943369669421,0.1377819014656467,0.0219999360855465,0.2359253324325585,3
0.6135387013857916,-1.1099178697639225,0.0956943369669421,0.1079637334986509,0.0077311152614671,0.2643650714854016,3
0.6150880057209714,-1.107847210431576,0.0931698672202029,0.0986455579173278,-0.0034800915582519,0.28142893976814,3
0.6193517674466819,-1.1144658645659022,0.0897280920107618,0.0905698030327314,-0.018768128182852,0.2928048416020353,3
0.6216788987534172,-1.1165365238982492,0.0927112144888519,0.0781455655316551,-0.0340561481088513,0.2984927769870877,3
0.616640484860117,-1.0954368103087375,0.1165743145892642,0.063236476459189,-0.0452673716271712,0.3041807123721401,3
0.6073383092411065,-1.0995747400056206,0.1280481517702738,0.0514334493064761,-0.0473057698310109,0.3155566142060355,3
0.6022998953478063,-1.1020554644430638,0.1356196812861826,0.0452213356449061,-0.0401713594189712,0.3269325160399308,3
0.6092749396600814,-1.098334377786899,0.1369956394802354,0.0421152737251529,-0.0248833394929719,0.3364124394121421,3
0.623615529172392,-1.0838533183317138,0.1324072324424168,0.0414940633767896,-0.0095953028683718,0.3439963843226692,3
0.6336923569589926,-1.066891534439086,0.1255236820235347,0.0483273873867229,-0.0004224942524924,0.3439963843226692,3
0.6309778995684622,-1.0635839018558282,0.1184108052389769,0.049569818261386,-0.0044993073587726,0.3269325160399308,3
0.6158658326925271,-1.0660646262932714,0.1106080696330839,0.0483273873867229,-0.0075569046645321,0.3022847339104559,3
0.5988107857896859,-1.0635839018558282,0.1028072137514998,0.0483273873867229,-0.0055185064606924,0.2776369517809811,3
0.5821462397746053,-1.0826129561129922,0.0929405408545273,0.0545395112262292,-0.0014416933544122,0.2643650714854016,3
0.5798222832718356,-1.1061933941399469,0.0911040502048146,0.0638576868075524,0.0026351197518679,0.2605731145620334,3
0.5767204997975103,-1.1210845187002283,0.0881228074510333,0.0725546622184485,0.0026351197518679,0.2586771361003492,3
0.5755585215461252,-1.127293107729458,0.0844498261516079,0.0812516274514083,-0.0014416933544122,0.2567811576386651,3
0.5743965432947403,-1.13308485371797,0.0807787245764913,0.0874637411129782,-0.0065377055626123,0.2567811576386651,3
0.5697454554852351,-1.1297738321669015,0.0761903175386727,0.0837364790227981,-0.0218257254886115,0.2529891696515062,3
0.56044645467019,-1.1231551780325753,0.0711413780451945,0.0756607241382017,-0.0279409367987314,0.2416132988814015,3
0.5488171477444443,-1.1181903401898778,0.0672409501044025,0.0694486002986954,-0.0309985508030918,0.2207574736752949,3
0.5344797330360991,-1.11033132383683,0.0635698485292857,0.068827389950332,-0.0299793517011719,0.1923177346224518,3
0.5026999453411177,-1.1070203022857614,0.0537031756323135,0.0744182932635386,-0.0238641403910521,0.161981986044134,3
0.5038619235925028,-1.112398594201366,0.0472782779447821,0.0837364790227981,-0.0157105141784917,0.141126191901818,3
0.508125685318213,-1.1157096157524349,0.0449831345637184,0.0930546444261848,-0.0095953028683718,0.1259583020807638,3
0.5154880557142831,-1.1165365238982492,0.0465902988477557,0.0998879786140545,-0.0055185064606924,0.1164783787085525,3
0.5278920148076189,-1.1173634320440633,0.0484249097731596,0.1029940405338077,-0.0024608924563321,0.108894464861816,3
0.5371910156226638,-1.112398594201366,0.0502614004228723,0.0955394959975746,-0.0024608924563321,0.0842466827323412,3
0.5402927990969891,-1.1037126697025037,0.0534738492666378,0.0911910133810948,-0.0065377055626123,0.0652868670517094,3
0.5399054730131942,-1.1020554644430638,0.0571449508417546,0.0887061618097049,-0.0095953028683718,0.0463270203072869,3
0.533705080868509,-1.1128120482742732,0.05737427720743,0.0862213204162515,-0.0065377055626123,0.0311591615500232,3
0.5309906234779787,-1.1157096157524349,0.0539325019979889,0.0843576893711614,0.0016159039513472,0.0197832597161279,3
0.5317652756455687,-1.126049356542926,0.0539325019979889,0.0843576893711614,0.0118079283677473,0.0103033363439166,3
0.5340924069523041,-1.140530415998111,0.0610453787825466,0.0862213204162515,0.0148655256735068,0.0008234129717054,3
0.5371910156226638,-1.1541811783396707,0.0709120516795191,0.0880849514613416,0.0118079283677473,-0.0048645224133469,3
0.5383561686780143,-1.161213286546904,0.0791734400167629,0.0874637411129782,0.0056927170576274,-0.0048645224133469,3
0.5383561686780143,-1.1632839458792508,0.0888107865480597,0.0769031448349284,-0.0044993073587726,0.0046154009588643,3
0.5387434947618093,-1.170316054086484,0.0984481330793566,0.0663425383789422,-0.0034800915582519,0.0065113794205484,3
0.5352543852036888,-1.183966816428044,0.1014312555574468,0.0483273873867229,0.0026351197518679,0.0103033363439166,3
0.5112274687925383,-1.2071338003820915,0.0979894803480058,0.0234789123845703,0.0128271274696671,0.0178872812544438,3
0.4988235096992025,-1.1992747840290434,0.0933991935858783,-0.0032331936626722,0.0291343464975863,0.0254711951011803,3
0.4891371828003625,-1.188104746124927,0.0883521338167089,-0.0255968272713714,0.0505375944323063,0.0349511184733915,3
0.4852607471584473,-1.180245729771879,0.0853690113386188,-0.0405059061659011,0.0719408256684254,0.0406390538584439,3
0.4856480732422421,-1.1761078000749965,0.0851396849729432,-0.0454755991307443,0.0902864429001843,0.0368470969350756,3
0.487972029745012,-1.1752808919291815,0.0867449695326716,-0.0392634854691744,0.1035360813209447,0.0273671735628644,3
0.4906864871355423,-1.1781750704395324,0.0860569904356452,-0.0075816762791521,0.1096512759324637,-0.0257203476194535,3
0.4910738132193373,-1.1831399082822296,0.0782542548297522,0.0141607368032472,0.1055744795247844,-0.0693279764933508,3
0.4891371828003625,-1.19224267582181,0.0660943182760251,0.0396304221537631,0.0984400691127446,-0.1053516293929304,3
0.4829336158517118,-1.2538812223630933,0.0500320740571969,0.0651001176822155,0.0913056587007049,-0.1167275312268258,3
0.479447681097557,-1.2853206767430958,0.0436071763696656,0.0818728377997716,0.0872288455944247,-0.1053516293929304,3
0.4778983767623772,-1.3039396658951636,0.0367236259507835,0.0849788997195248,0.0862096464925049,-0.0825998567889303,3
0.4829336158517118,-1.3109717741023974,0.031674686457305,0.0750395137898383,0.0872288455944247,-0.0617440315828237,3
0.4957249010288426,-1.3068338444055143,0.0314453600916296,0.0576455731459824,0.085190447390585,-0.0465761728255601,3
0.505801728815443,-1.2977344658337444,0.0323626655543314,0.0402516325021265,0.0770368378766255,-0.0314083140682965,3
0.5065763809830331,-1.289872060512886,0.0339698298383687,0.0129183161065205,0.0556335899419055,0.0046154009588643,3
0.5023126192573227,-1.282013044159838,0.0346578089353951,0.0036001405251974,0.0454415822241062,0.0197832597161279,3
0.4995981618667923,-1.278288568535862,0.0335111771070177,0.0004940786054442,0.036268756909626,0.0349511184733915,3
0.4995981618667923,-1.2770482063171404,0.032133339188656,0.0023577096505343,0.0291343464975863,0.0425350633839186,3
0.499988662754553,-1.2791154766816766,0.0319040128229806,0.0067061922670141,0.0260767491918267,0.0444310418456027,3
0.4995981618667923,-1.2865644279296282,0.0332818507413423,0.009191043838404,0.0240383509879871,0.0406390538584439,3
0.4976615314478175,-1.298974828052466,0.0339698298383687,0.0079486231416772,0.0230191518860672,0.0425350633839186,3
0.4968868792802276,-1.3101448659565829,0.0332818507413423,0.0036001405251974,0.0219999360855465,0.048222998768971,3
0.5026999453411177,-1.313039044466933,0.0337405034726933,-0.0026119833143089,0.0219999360855465,0.0614948790645505,3
0.5120021209601282,-1.308487660697143,0.0369529523164589,-0.0200059137802284,0.018942338779787,0.0956225845662366,3
0.5154880557142831,-1.3026959147086312,0.0376409314134853,-0.0280816686648248,0.0158847247754266,0.1107904433235002,3
0.5166532087696336,-1.296077260574305,0.0355751143980972,-0.0336725821559678,0.0148655256735068,0.1240623236190796,3
0.5205264696075833,-1.2745674818796973,0.0401654011602244,-0.0361574235494212,0.013846326571587,0.1316462685296068,3
0.5151007296304881,-1.2729102766202576,0.0413120329886019,-0.0349150028526945,0.0128271274696671,0.135438225452975,3
0.5038619235925028,-1.2749809359526043,0.0376409314134853,-0.0330513616296681,0.0128271274696671,0.1373342039146591,3
0.4926231175545172,-1.2758078440984189,0.0309867073602786,-0.0287028790131882,0.013846326571587,0.1297502900679226,3
0.4871973775774221,-1.2861509738567207,0.0270862794194864,-0.0193847034318651,0.0169039405759473,0.1240623236190796,3
0.4833241167394724,-1.3026959147086312,0.0282329112478638,0.0017364993021709,0.0179231396778672,0.1316462685296068,3
0.4775078758746167,-1.3175904282367237,0.0309867073602786,0.0036001405251974,0.0148655256735068,0.1392301823763433,3
0.4716948098137264,-1.3300008283595617,0.0314453600916296,0.0011152889538075,0.0107887292658274,0.1506060842102386,3
0.4654944176690413,-1.3362060284209805,0.0298400755319011,-0.0032331936626722,0.0067119161595473,0.161981986044134,3
0.444956610816011,-1.3337253039835373,0.0286915639792148,-0.0075816762791521,0.0056927170576274,0.1752538663397135,3
0.4395308708389157,-1.326689806808493,0.0270862794194864,-0.0100665278505419,0.0087503143633869,0.188525746635293,3
0.4325526517226751,-1.316763520090909,0.0250204624040983,-0.011930158895632,0.0128271274696671,0.2036936053925566,3
0.4275142378293749,-1.3068338444055143,0.0257084415011247,-0.0125513692439954,0.0179231396778672,0.2150695072264519,3
0.425190281326605,-1.3051800281138852,0.0266276266881356,-0.0106877381989053,0.0219999360855465,0.222653452136979,3
0.424415629159015,-1.3064203903326068,0.0254791151354493,-0.0075816762791521,0.0281151473956664,0.2302373970475062,3
0.425190281326605,-1.3047665740409782,0.0231858514786944,-0.0125513692439954,0.0230191518860672,0.2340293539708744,3
0.4255776074104,-1.300215190271188,0.0208907080976307,-0.0193847034318651,0.0148655256735068,0.2359253324325585,3
0.4228663248238351,-1.2857341308160029,0.0181369119852162,-0.0237331860483449,0.0087503143633869,0.2321333755091903,3
0.4143388013724147,-1.255535038654722,0.0096461972822967,-0.0218695550032549,0.0056927170576274,0.222653452136979,3
0.4131768231210296,-1.2480894763745811,0.0052871166101535,-0.0156574311637485,0.0016159039513472,0.2036936053925566,3
0.4089130613953194,-1.245195297864231,-0.0022844129057551,-0.0057180452340621,-0.0075569046645321,0.1790458543268724,3
0.399998211860104,-1.2530543142172788,-0.0091679633246372,0.0085698334900406,-0.0197873272847719,0.1562940506590816,3
0.3926358414640338,-1.2671185306317458,-0.0103164748773235,0.0234789123845703,-0.0299793517011719,0.1449181488251862,3
0.3883720797383235,-1.2758078440984189,-0.0061848408465471,0.0433576944218797,-0.0462865707290911,0.1487101057485545,3
0.3868227754031436,-1.2791154766816766,-0.0029723920027815,0.0464637563416328,-0.0493441680348506,0.1581900291207657,3
0.3848861449841687,-1.277875114462955,-0.0029723920027815,0.0458425459932695,-0.0513825829372911,0.1600860075824499,3
0.3833336658450234,-1.271669914401536,-0.0018257601744041,0.043978904770243,-0.0534209811411308,0.1506060842102386,3
0.3918611892964438,-1.2563619468005365,0.0034525056847497,0.0408728530284262,-0.0585169933493308,0.1373342039146591,3
0.3914738632126488,-1.2530543142172788,0.0057457693415046,0.0377667911086731,-0.0646322046594507,0.1221663451573955,3
0.3934104936316237,-1.2472625682287672,0.0105653824693074,0.0371455807603097,-0.0707473992709698,0.1051025079384478,3
0.3980615814411291,-1.2460222060100452,0.0206613817319553,0.0414940633767896,-0.0738050132753301,0.0899346181173936,3
0.4030999953344292,-1.2538812223630933,0.0339698298383687,0.0458425459932695,-0.0758434114791698,0.0804546947451823,3
0.4058112779209941,-1.2551215845818149,0.0488835625045106,0.0433576944218797,-0.0768626105810896,0.0558069436794981,3
0.405036625753404,-1.2468491141558598,0.0628818694322593,0.0402516325021265,-0.0687090010671301,0.0349511184733915,3
0.4019380170830443,-1.2435380926047912,0.0709120516795191,0.0383880014570364,-0.0534209811411308,0.0121993148056008,3
0.4034873214182242,-1.2497432926662104,0.0777956020984012,0.0390092118053998,-0.0330369490069315,-0.0086565104005057,3
0.41744058484674,-1.2662916224859313,0.0853690113386188,0.0433576944218797,-0.0116337177708123,-0.0219283906960852,3
0.4337178047780256,-1.2849072226701888,0.0959236633326175,0.0477061770383595,0.0056927170576274,-0.0276163571449283,3
0.4445661099282505,-1.290285514585793,0.1032658664828508,0.0470849666899962,0.0169039405759473,-0.0257203476194535,3
0.4503823507931062,-1.2853206767430958,0.1039538455798772,0.0396304221537631,0.0260767491918267,-0.0257203476194535,3
0.4530936333796709,-1.279528930754584,0.1012019291917713,0.0278274051789866,0.0393263709139863,-0.0257203476194535,3
0.4534809594634659,-1.277875114462955,0.0982188067136812,0.0079486231416772,0.085190447390585,-0.0352002709916647,3
0.4550302637986458,-1.2807726819411165,0.0956943369669421,-0.0019907729659455,0.1065936786267042,-0.0427842159021918,3
0.4577447211891762,-1.2853206767430958,0.0924818881231765,-0.0113089485472686,0.1208624994507836,-0.0503681297489283,3
0.4480552194863707,-1.2844937685972813,0.082615215226204,-0.0168998518604752,0.1330929220710234,-0.0598480531211396,3
0.4403055230065058,-1.2849072226701888,0.0736658477919336,-0.017521072386775,0.1473617428951029,-0.0693279764933508,3
0.4337178047780256,-1.294423444282676,0.0660943182760251,-0.0113089485472686,0.1626497628211022,-0.0807038783272462,3
0.4255776074104,-1.3113852281753045,0.0605867260511956,-0.0032331936626722,0.1748801854413419,-0.0920797490973509,3
0.4100750396467043,-1.3320680987240976,0.0546204810950153,0.0036001405251974,0.1799761976495419,-0.099663694007878,3
0.3887594058221185,-1.35151399602198,0.0486542361388352,0.0048425612219241,0.1840530107558222,-0.0977676844824033,3
0.3736473389461834,-1.359786466447935,0.0422293384513039,-0.0032331936626722,0.1881298238621023,-0.0844958352506144,3
0.3693835772204731,-1.3568922879375849,0.0339698298383687,-0.0150362208153852,0.1911874211678619,-0.0674319980316667,3
0.3693835772204731,-1.3502702448354476,0.0291502167105659,-0.0274604583164615,0.190168222065942,-0.0503681297489283,3
0.3693835772204731,-1.325449444589771,0.027774258516513,-0.0398846958175378,0.1871106247601825,-0.0427842159021918,3
0.3678342728852933,-1.3151063148314694,0.0270862794194864,-0.050445302273524,0.1830338116539023,-0.0389922589788236,3
0.3635705111595829,-1.308074206624236,0.0286915639792148,-0.0560362055867306,0.1799761976495419,-0.0370962494533488,3
0.3616307059366426,-1.3047665740409782,0.0305280546289276,-0.0572786364613937,0.1809954134500626,-0.0389922589788236,3
0.3651198154947628,-1.3035228228544458,0.0335111771070177,-0.0554149952383672,0.1840530107558222,-0.0465761728255601,3
0.370158229388063,-1.3031093687815385,0.0360356468537568,-0.0498240919251606,0.1840530107558222,-0.0522641392744031,3
0.3724821858908329,-1.3039396658951636,0.0383289105105117,-0.0479604507021342,0.1820146125519825,-0.0579520746594554,3
0.3744219911137734,-1.3039396658951636,0.0413120329886019,-0.0454755991307443,0.1799761976495419,-0.0655360195699825,3
0.3736473389461834,-1.300628644344095,0.0431485236383146,-0.0423695473889276,0.1779377994457023,-0.0769119214038779,3
0.3655071415785578,-1.3076607525513289,0.044753808198043,-0.0392634854691744,0.1809954134500626,-0.0901837706356668,3
0.3581447711824878,-1.3180038823096305,0.0454417872950694,-0.0373998544240843,0.1860914089596618,-0.1015596724695621,3
0.3515570529540075,-1.3275201039221185,0.044295155466692,-0.0380210647724477,0.1911874211678619,-0.1053516293929304,3
0.3476806173120923,-1.337446390639702,0.0415413593542775,-0.0398846958175378,0.1973026324779818,-0.1015596724695621,3
0.3488425955634772,-1.3453087959605607,0.0387875632418627,-0.0411271165142645,0.201379445584262,-0.0958717060207191,3
0.3554303137919573,-1.349443336689633,0.0374116050478099,-0.0429907577372909,0.1952642342741421,-0.0863918137122985,3
0.3612433798528475,-1.351100541949073,0.0344284825697197,-0.0467180300054074,0.1860914089596618,-0.078807899865562,3
0.3612433798528475,-1.3477895203980044,0.0284622376135394,-0.052308933318614,0.1758993845432618,-0.0674319980316667,3
0.3538810094567774,-1.3436515907011213,0.0222666662916837,-0.0585210571581204,0.1667265759273823,-0.0560560961977713,3
0.3534936833729824,-1.3320680987240976,0.0176782592538651,-0.0653543913459901,0.1626497628211022,-0.0522641392744031,3
0.3612433798528475,-1.318830790455445,0.0163004213355034,-0.0721877153559234,0.163668961923022,-0.0617440315828237,3
0.3647324894109679,-1.3109717741023974,0.0130898522160466,-0.0752937772756766,0.1646881777235427,-0.073119933416719,3
0.362408532908198,-1.3068338444055143,0.0140071576787486,-0.0740513464010134,0.1616305637191823,-0.0825998567889303,3
0.3565954668473078,-1.3089011147700504,0.0169902801568387,-0.0690816534361702,0.1555153524090624,-0.0882878232377733,3
0.3534936833729824,-1.3184173363825376,0.0183662383508916,-0.0554149952383672,0.146342543793183,-0.099663694007878,3
0.3542683355405724,-1.326276352735586,0.0206613817319553,-0.0473392403537708,0.1432849297888227,-0.1072476078546145,3
0.3511697268702127,-1.337446390639702,0.0222666662916837,-0.0429907577372909,0.1443041455893433,-0.1091435863162986,3
0.3496172477310672,-1.3573057420104917,0.0183662383508916,-0.0436119680856543,0.1473617428951029,-0.1034556509312463,3
0.3569827929311028,-1.359786466447935,0.0149244631414504,-0.0498240919251606,0.1483809419970227,-0.0920797490973509,3
0.3639578372433779,-1.357719196083399,0.0140071576787486,-0.0585210571581204,0.1443041455893433,-0.0807038783272462,3
0.3639578372433779,-1.3523409041677945,0.0128586461260623,-0.0647331708196903,0.1371697184787028,-0.0674319980316667,3
0.3550429877081624,-1.3469626122521898,0.0096461972822967,-0.0684604430878069,0.1320737229691036,-0.0579520746594554,3
0.3407055729998172,-1.3403439581178636,0.0052871166101535,-0.0690816534361702,0.129016125663344,-0.0465761728255601,3
0.3279142878226864,-1.339517049972049,0.001157362303686,-0.0566574159350939,0.1208624994507836,-0.0162404242472422,3
0.3209392435104112,-1.3461357041063753,-0.0020550865400795,-0.0535513540153407,0.1106704917329844,0.0027193914333895,3
0.3209392435104112,-1.3473760663250969,-0.0036622508241168,-0.057899846809757,0.0943632560064644,0.021679238177812,3
0.3128022209467513,-1.331241190578283,0.0039111584161007,-0.0678392327394435,0.0719408256684254,0.0368470969350756,3
0.3050493496629207,-1.3295873742866544,0.0073529336255419,-0.0802634702405198,0.0464607813260261,0.0501189772306551,3
0.3003982618534154,-1.321314903860699,0.0135485049473976,-0.0926877077415961,0.0250575500899069,0.0577029221411822,3
0.3058240018305105,-1.3097314118836754,0.0211200344633063,-0.1007634728041289,0.0097695134653068,0.0614948790645505,3
0.3139641991981361,-1.3035228228544458,0.0266276266881356,-0.1051119554206088,0.0005967048494274,0.0652868670517094,3
0.3112497418076058,-1.3022824606357242,0.0309867073602786,-0.1088392276887253,-0.0065377055626123,0.0690787929112869,3
0.3011729140210053,-1.3047665740409782,0.0339698298383687,-0.1138089206535685,-0.0248833394929719,0.07476675936013,3
0.2914865871221654,-1.3051800281138852,0.0378702577791609,-0.1107028587338154,-0.0320177499050116,0.0785587162834982,3
0.2848988688936852,-1.3072472984784214,0.0433778500039902,-0.1088392276887253,-0.0340561481088513,0.0804546947451823,3
0.2907119349545754,-1.3076607525513289,0.0495734213258459,-0.1113240690821787,-0.0350753472107712,0.0785587162834982,3
0.2876101514802501,-1.2993882821253735,0.0500320740571969,-0.1169149825733217,-0.0401713594189712,0.0766627378218141,3
0.2748220411070848,-1.2915258768045148,0.0500320740571969,-0.1218846653602285,-0.0493441680348506,0.07476675936013,3
0.261643429846159,-1.2857341308160029,0.0509493795198987,-0.1256119376283451,-0.0595361924512507,0.0728707808984458,3
0.253119081198704,-1.280359227868209,0.0532445229009624,-0.1305816305931883,-0.0676898019652103,0.0728707808984458,3
0.2476933412216088,-1.2733237306931648,0.0603573996855202,-0.1349301132096682,-0.0758434114791698,0.0785587162834982,3
0.2465313629702239,-1.263810898048488,0.0709120516795191,-0.1343089028613048,-0.07482421237725,0.0804546947451823,3
0.252731755114909,-1.2464356600829527,0.0810080509421669,-0.1336876925129415,-0.0707473992709698,0.0766627378218141,3
0.2655198654880743,-1.223268676128905,0.0911040502048146,-0.1324452718162148,-0.0656514037613706,0.0671828144496028,3
0.2868354993126601,-1.1972041246966965,0.1069369680579674,-0.1293392098964616,-0.0595361924512507,0.0501189772306551,3
0.2918739132059604,-1.1947234002592533,0.1117565811857702,-0.1237482964053186,-0.0544401802430506,0.0292631830883391,3
0.2918739132059604,-1.2009286003206725,0.1142810509325094,-0.1169149825733217,-0.0473057698310109,0.0084073578822325,3
0.2910992610383704,-1.2125120922976955,0.1133618657454985,-0.1094604380370886,-0.0381329445165307,-0.012448467323874,3
0.2930358914573453,-1.2336118058872072,0.1172622936862906,-0.1001422522778291,-0.0309985508030918,-0.0370962494533488,3
0.2907119349545754,-1.2580191520599764,0.1243770501951572,-0.0902028561702063,-0.0208065263866917,-0.0617440315828237,3
0.2786953019450346,-1.2791154766816766,0.1291947835986512,-0.0889604354734796,-0.0075569046645321,-0.0579520746594554,3
0.2608687776785691,-1.291942719845233,0.1324072324424168,-0.0870968044283895,0.013846326571587,-0.0484721512872442,3
0.2507919498919686,-1.3022824606357242,0.1319485797110658,-0.0858543735537264,0.0393263709139863,-0.0370962494533488,3
0.2604814515947741,-1.3026959147086312,0.1243770501951572,-0.0839907425086363,0.0586912039462658,-0.0276163571449283,3
0.2662945176556642,-1.291942719845233,0.1193281107016788,-0.0815058909372465,0.0688832116640651,-0.0200324122344011,3
0.2662945176556642,-1.2832534063785597,0.1135911921111741,-0.0783998290174933,0.0709216265665056,-0.012448467323874,3
0.2577701690082092,-1.2753943900255118,0.1099200905360575,-0.0752937772756766,0.0688832116640651,-0.0105524888621899,3
0.2449788838310784,-1.2683622818182785,0.1110686020887436,-0.07156650500756,0.0688832116640651,-0.012448467323874,3
0.234902056044478,-1.2671185306317458,0.1112979284544192,-0.0560362055867306,0.0872288455944247,-0.0029685439516627,3
0.2314161212903232,-1.27415402780679,0.1080854796106537,-0.0492028713988609,0.0964016542103041,0.0084073578822325,3
0.2352925569322385,-1.278288568535862,0.1041831719455526,-0.0485816610504975,0.0994592682146645,0.021679238177812,3
0.2399404699377783,-1.2720833684744433,0.1021192346544734,-0.0510665126218873,0.0974208700108248,0.0292631830883391,3
0.2356798830160335,-1.2538812223630933,0.1012019291917713,-0.0529301436669774,0.0943632560064644,0.0368470969350756,3
0.2318034473741182,-1.2509870438527426,0.0998240912734096,-0.0535513540153407,0.0923248578026248,0.0406390538584439,3
0.227152359564613,-1.2460222060100452,0.1016605819231224,-0.0541725745416405,0.0913056587007049,0.0425350633839186,3
0.2209519674199277,-1.241057368167348,0.1055610098639143,-0.0535513540153407,0.0913056587007049,0.0425350633839186,3
0.2155262274428326,-1.237332892543372,0.1060196625952653,-0.0516877229702507,0.0913056587007049,0.0463270203072869,3
0.2116497918009173,-1.2352656221788358,0.1055610098639143,-0.0423695473889276,0.0913056587007049,0.0520149556923392,3
0.2101004874657373,-1.2327815087735818,0.1078561532449781,-0.0373998544240843,0.0943632560064644,0.0558069436794981,3
0.2124244439685072,-1.2311276924819532,0.1145103772981848,-0.0355362132010579,0.0974208700108248,0.0614948790645505,3
0.2058367257400271,-1.229473876190324,0.1234578650081463,-0.0373998544240843,0.1035360813209447,0.0690787929112869,3
0.2011856379305218,-1.2261628546392558,0.1218525804484181,-0.0460968196570441,0.1116896908349042,0.0766627378218141,3
0.2066113779076171,-1.2129255463706032,0.1218525804484181,-0.0591422675064837,0.118824101246944,0.0880386396557094,3
0.2151389013590376,-1.1980344218103218,0.1225405595454445,-0.0728089257042867,0.1218817152513043,0.0994145414896048,3
0.2186248361131924,-1.1831399082822296,0.1229992122767955,-0.083369532160273,0.1198433003488638,0.1069984864001319,3
0.2228885978389026,-1.1661781243896014,0.1257530083892101,-0.0889604354734796,0.1157665039411844,0.1069984864001319,3
0.2267650334808179,-1.1554215405583923,0.131031274248364,-0.0895816458218429,0.1127088899368241,0.0994145414896048,3
0.2240505760902876,-1.1508735457564123,0.1376854983015707,-0.0914452870448694,0.1137280890387439,0.0937265750407618,3
0.2159135535266275,-1.150456702715695,0.144110395989102,-0.0976574108843757,0.1178049021450241,0.0899346181173936,3
0.2112624657171223,-1.148802886424066,0.1480108239298939,-0.104490734894309,0.1208624994507836,0.0861426611940253,3
0.2190153370009529,-1.1479759782782517,0.1514525991393351,-0.1075967968140622,0.1249393125570638,0.0823506732068664,3
0.2275396856484079,-1.1525273620480416,0.1555823534458027,-0.1051119554206088,0.1269777107609035,0.0766627378218141,3
0.2279270117322029,-1.1583191080365534,0.1585654759238928,-0.1013846831524922,0.123920113455144,0.0728707808984458,3
0.2225012717551077,-1.159559470255275,0.1594827813865947,-0.0976574108843757,0.118824101246944,0.0652868670517094,3
0.2155262274428326,-1.1649377621708796,0.1597121077522703,-0.0933089180899594,0.1157665039411844,0.0577029221411822,3
0.2081638570467625,-1.179415432658254,0.1608606193049566,-0.0870968044283895,0.1147472881406638,0.053910965217814,3
0.207386030075207,-1.1909989246352777,0.1622365774990094,-0.0895816458218429,0.1167857030431043,0.0558069436794981,3
0.2166882056942174,-1.1951368543321603,0.1608606193049566,-0.0957937696613493,0.118824101246944,0.0652868670517094,3
0.2290889899835878,-1.2058934381633697,0.1592534550209192,-0.1032483141975823,0.118824101246944,0.0766627378218141,3
0.2205646413361328,-1.2038261677988336,0.161548598401983,-0.110081648385452,0.1178049021450241,0.0918305965790777,3
0.2089385092143524,-1.1947234002592533,0.1636144154173711,-0.1131877103052052,0.118824101246944,0.1069984864001319,3
0.2039000953210522,-1.1831399082822296,0.1629245565960358,-0.1094604380370886,0.1198433003488638,0.1240623236190796,3
0.2097131613819424,-1.1736236866697425,0.1604019665736056,-0.1007634728041289,0.118824101246944,0.135438225452975,3
0.2190153370009529,-1.161626740619811,0.1576481704611908,-0.0902028561702063,0.1147472881406638,0.1373342039146591,3
0.2240505760902876,-1.150456702715695,0.1560410061771537,-0.0765361979724033,0.0882480446963445,0.1259583020807638,3
0.2225012717551077,-1.140943870071018,0.1581068231925418,-0.0690816534361702,0.0739792238722651,0.1259583020807638,3
0.2159135535266275,-1.1297738321669015,0.1622365774990094,-0.0610059087295102,0.0668448134602254,0.1297502900679226,3
0.2283143378159979,-1.1057799400670398,0.1604019665736056,-0.0585210571581204,0.0658256143583055,0.1373342039146591,3
0.2484679933891988,-1.096677172527459,0.1581068231925418,-0.0634907501229636,0.0678640125621452,0.141126191901818,3
0.2600941255109791,-1.0892316102473183,0.1555823534458027,-0.0734301360526501,0.0688832116640651,0.141126191901818,3
0.2593194733433892,-1.0784750264161094,0.1519112518706861,-0.0864755839020897,0.0678640125621452,0.1392301823763433,3
0.2550557116176789,-1.0739236426463192,0.1496161084896224,-0.0976574108843757,0.0668448134602254,0.1373342039146591,3
0.2554430377014739,-1.0751673938328516,0.1514525991393351,-0.102627103849219,0.0658256143583055,0.1373342039146591,3
0.2589321472595942,-1.075580847905759,0.1551237007144517,-0.0926877077415961,0.0627680003539452,0.141126191901818,3
0.2608687776785691,-1.0751673938328516,0.1551237007144517,-0.0864755839020897,0.0607296021501055,0.1430221703635021,3
0.2643578872366893,-1.0656511722203643,0.1535184161547232,-0.083369532160273,0.0535951917380658,0.1316462685296068,3
0.2608687776785691,-1.0602728803047596,0.1624659038646848,-0.0815058909372465,0.0393263709139863,0.1051025079384478,3
0.2473060151378138,-1.0615132425234812,0.1718739240303063,-0.07777861866913,0.0230191518860672,0.0823506732068664,3
0.2267650334808179,-1.0681318966578075,0.179445453546215,-0.0709452946591967,0.013846326571587,0.0671828144496028,3
0.2116497918009173,-1.0772346641973878,0.1812819441959277,-0.0653543913459901,0.0158847247754266,0.0577029221411822,3
0.2042874214048472,-1.085093680550436,0.1796766596361993,-0.0628695397746003,0.0281151473956664,0.053910965217814,3
0.2015729640143168,-1.0946099021629232,0.1810526178302521,-0.0597634778548471,0.057672004844346,0.0804546947451823,3
0.2011856379305218,-1.096677172527459,0.1805939650989013,-0.0603846882032104,0.0658256143583055,0.0899346181173936,3
0.2019602900981118,-1.085507134623343,0.1803646387332257,-0.0616271190778736,0.0658256143583055,0.0899346181173936,3
0.2011856379305218,-1.071442918208876,0.1877068418834588,-0.0591422675064837,0.0586912039462658,0.0861426611940253,3
0.1864608971383817,-1.05117350173299,0.2120285947152221,-0.0535513540153407,0.0535951917380658,0.0823506732068664,3
0.1802605049936965,-1.0428976423392242,0.2117992683495468,-0.0498240919251606,0.0546143908399856,0.0728707808984458,3
0.1787080258545511,-1.0462086638902928,0.2083574931401056,-0.0492028713988609,0.0627680003539452,0.0595989006028663,3
0.1783206997707561,-1.052827318024619,0.2083574931401056,-0.0516877229702507,0.0709216265665056,0.0463270203072869,3
0.179095351938346,-1.0524138639517115,0.203310433370936,-0.0572786364613937,0.080094435182385,0.0387430753967597,3
0.1825844614964664,-1.0474490261090144,0.1934437604739637,-0.0566574159350939,0.0923248578026248,0.0368470969350756,3
0.1899468318925365,-1.0433110964121313,0.187248189152108,-0.0498240919251606,0.0923248578026248,0.0330551400117074,3
0.1949852457858367,-1.0449683016715707,0.1840357403083423,-0.0460968196570441,0.0892672437982644,0.0254711951011803,3
0.1907214840601264,-1.054894588389155,0.1835770875769914,-0.0479604507021342,0.0831520491867453,0.015991271728969,3
0.1740569380450458,-1.075580847905759,0.187248189152108,-0.0535513540153407,0.0760176220761048,0.0103033363439166,3
0.1709583293746861,-1.071029464135969,0.1902313116301981,-0.0585210571581204,0.0719408256684254,0.0140952932672849,3
0.1721203076260709,-1.0557214965349693,0.1913779434585756,-0.0616271190778736,0.0729600247703453,0.0235752166394961,3
0.1759967432679862,-1.0387597126423411,0.1927557813769373,-0.0622483294262369,0.0770368378766255,0.0349511184733915,3
0.1787080258545511,-1.0271796096331285,0.1961975565863785,-0.0610059087295102,0.080094435182385,0.0406390538584439,3
0.1814224832450815,-1.0197306583851766,0.2012446163555478,-0.0628695397746003,0.0760176220761048,0.0387430753967597,3
0.1814224832450815,-1.0106312798134072,0.2088161458714566,-0.0672180223910802,0.0760176220761048,0.0235752166394961,3
0.1783206997707561,-1.000701604128012,0.2157015760146476,-0.0721877153559234,0.0790752360804652,0.0008234129717054,3
0.1752220911003963,-0.9944964040665936,0.2182241660370779,-0.0752937772756766,0.0831520491867453,-0.0257203476194535,3
0.1690216989557111,-1.007733712335246,0.2140944117306105,-0.0740513464010134,0.0862096464925049,-0.0503681297489283,3
0.1748347650166014,-1.0259358584465958,0.2161602287459986,-0.0672180223910802,0.0882480446963445,-0.0674319980316667,3
0.1787080258545511,-1.0412438260475951,0.2223558000678543,-0.0585210571581204,0.0882480446963445,-0.078807899865562,3
0.1694090250395061,-1.048275934254829,0.22855137138971,-0.0498240919251606,0.0892672437982644,-0.0863918137122985,3
0.1558430876947854,-1.05117350173299,0.2306153086807895,-0.0429907577372909,0.0974208700108248,-0.0920797490973509,3
0.1504173477176902,-1.0536542261704331,0.2274028598370239,-0.0324301512813047,0.123920113455144,-0.0958717060207191,3
0.1546811094434004,-1.0561349506078763,0.221665941246519,-0.0287028790131882,0.1320737229691036,-0.0882878232377733,3
0.1628181320070605,-1.0610997884505735,0.2157015760146476,-0.0293240893615515,0.1330929220710234,-0.0769119214038779,3
0.171345655458481,-1.0652377181474568,0.2115699419838711,-0.0330513616296681,0.1269777107609035,-0.0674319980316667,3
0.1779333736869611,-1.0586190640131306,0.203769086102287,-0.0367786338977846,0.118824101246944,-0.0598480531211396,3
0.1740569380450458,-1.0557214965349693,0.2003273108928458,-0.0373998544240843,0.1137280890387439,-0.0541601177360872,3
0.1624308059232655,-1.0639973559287352,0.2012446163555478,-0.0355362132010579,0.1116896908349042,-0.0352002709916647,3
0.1577797181137602,-1.0602728803047596,0.2023931279082342,-0.038642275120811,0.1116896908349042,-0.0219283906960852,3
0.1554557616109903,-1.057792155867316,0.2014739427212233,-0.050445302273524,0.1035360813209447,0.0027193914333895,3
0.1558430876947854,-1.050760047660083,0.2044570651993134,-0.0547937848900039,0.0994592682146645,0.0103033363439166,3
0.1604941755042906,-1.0342117178403616,0.2090473519614409,-0.0572786364613937,0.0984400691127446,0.0140952932672849,3
0.1686311980679506,-1.016423025801919,0.2106526365211693,-0.057899846809757,0.0974208700108248,0.0140952932672849,3
0.1752220911003963,-1.004012625679081,0.2170775342087004,-0.0585210571581204,0.0953824551083843,0.0084073578822325,3
0.1756094171841913,-1.0011150582009196,0.2186846984927377,-0.0603846882032104,0.0923248578026248,-0.0010725654899786,3
0.1744442641288408,-1.0031823285654555,0.2221264737021789,-0.0616271190778736,0.0892672437982644,-0.0105524888621899,3
0.1690216989557111,-1.0056664419707098,0.2253389225459444,-0.0597634778548471,0.0862096464925049,-0.0181364027089264,3
0.1608815015880856,-1.007733712335246,0.22556824891162,-0.057899846809757,0.0872288455944247,-0.0238243691577693,3
0.1573923920299652,-1.0135254583237576,0.2244197373589337,-0.0510665126218873,0.1045552804228645,-0.0276163571449283,3
0.1593321972529056,-1.0234551340091522,0.2253389225459444,-0.0473392403537708,0.1137280890387439,-0.0314083140682965,3
0.1593321972529056,-1.0313141503622003,0.2269442071056729,-0.0460968196570441,0.118824101246944,-0.0370962494533488,3
0.1535191311920155,-1.0354520800590834,0.2271735334713483,-0.044854388782381,0.1178049021450241,-0.0389922589788236,3
0.136854585176935,-1.060686334377667,0.2317638202334757,-0.0429907577372909,0.1147472881406638,-0.0389922589788236,3
0.1349147799539945,-1.0772346641973878,0.2331397784275286,-0.0405059061659011,0.1116896908349042,-0.0389922589788236,3
0.1318161712836347,-1.0838533183317138,0.2292393504867366,-0.0392634854691744,0.1106704917329844,-0.0333042925299806,3
0.124837952167394,-1.0834398642588068,0.2262562280086465,-0.038642275120811,0.1127088899368241,-0.0257203476194535,3
0.1209646913294443,-1.084266772404621,0.22556824891162,-0.0380210647724477,0.1178049021450241,-0.0181364027089264,3
0.1236759739160091,-1.0892316102473183,0.2264855543743219,-0.0355362132010579,0.1310545071685829,-0.006760500875031,3
0.1260031052227445,-1.0912988806118546,0.2283201652997257,-0.0361574235494212,0.136150519376783,0.0027193914333895,3
0.1279397356417194,-1.090058518393133,0.229468676852412,-0.0342937925043312,0.141246531584983,0.015991271728969,3
0.1337528017026096,-1.0892316102473183,0.229468676852412,-0.0318089409329413,0.1483809419970227,0.0292631830883391,3
0.1492553694663052,-1.085507134623343,0.2207486357838172,-0.0299453098878513,0.1514385560013831,0.0425350633839186,3
0.1504173477176902,-1.0747539397599446,0.2150117171933123,-0.0305665202362146,0.1514385560013831,0.0558069436794981,3
0.1527444790244255,-1.0586190640131306,0.208586819505781,-0.0324301512813047,0.1483809419970227,0.0728707808984458,3
0.1550684355271954,-1.0412438260475951,0.2039984124679626,-0.0324301512813047,0.1443041455893433,0.0842466827323412,3
0.1546811094434004,-1.0317276044351076,0.2028517806395852,-0.0318089409329413,0.1392081333811433,0.0899346181173936,3
0.1484807172987153,-1.0255224043736884,0.2039984124679626,-0.0367786338977846,0.1300353247652639,0.0956225845662366,3
0.1399531938472947,-1.0147658205424794,0.20514504429634,-0.0436119680856543,0.1279969098628234,0.1013105199512889,3
0.1356894321215845,-1.0031823285654555,0.2019325954525743,-0.0492028713988609,0.1279969098628234,0.1051025079384478,3
0.1395658677634998,-0.9882912040051742,0.1959682302207029,-0.050445302273524,0.1269777107609035,0.0994145414896048,3
0.1624308059232655,-0.9506465495637528,0.1929851077426127,-0.0473392403537708,0.1218817152513043,0.0804546947451823,3
0.1643706111462059,-0.938646214546011,0.1971148620490803,-0.0398846958175378,0.1096512759324637,0.0501189772306551,3
0.1620434798394705,-0.938646214546011,0.2012446163555478,-0.0280816686648248,0.0923248578026248,0.0140952932672849,3
0.1577797181137602,-0.9353385819627532,0.204227738833638,-0.0131725897702951,0.0729600247703453,-0.0200324122344011,3
0.1542937833596055,-0.9320275604116848,0.2092766783271163,0.0017364993021709,0.0556335899419055,-0.0465761728255601,3
0.1593321972529056,-0.9444379605345232,0.2147823908276369,0.0191304297680904,0.0352495578077061,-0.0920797490973509,3
0.1678565459003607,-0.9605728362813366,0.2182241660370779,0.0160243780262737,0.0372879727101467,-0.1015596724695621,3
0.1666945676489758,-0.9692621497480096,0.2207486357838172,0.0098122541867673,0.0454415822241062,-0.093975727559035,3
0.1628181320070605,-0.9721563282583604,0.2207486357838172,0.0042213508735607,0.0586912039462658,-0.0769119214038779,3
0.1690216989557111,-0.981672549870848,0.22556824891162,-0.0007483522692188,0.0709216265665056,-0.0579520746594554,3
0.1701836772070961,-0.9837398202353842,0.2308446350464648,-0.0050968348856987,0.0780560369785453,-0.0484721512872442,3
0.1659199154813858,-0.9895315662238958,0.2315326141434915,-0.0106877381989053,0.0790752360804652,-0.0484721512872442,3
0.1589448711691107,-1.0031823285654555,0.2324517993305022,-0.0181422827351383,0.0760176220761048,-0.0541601177360872,3
0.1523539781366651,-1.0172499339477334,0.2354349218085923,-0.0237331860483449,0.0709216265665056,-0.0617440315828237,3
0.1461535859919799,-1.027593063706035,0.2372695327339962,-0.0237331860483449,0.0699024107659849,-0.0636400411082985,3
0.1364672590931399,-1.0342117178403616,0.2372695327339962,-0.0162786415121119,0.0749984229741849,-0.0522641392744031,3
0.1271650834741295,-1.0416572801205022,0.2381868381966982,-0.0057180452340621,0.0811136342843048,-0.0427842159021918,3
0.1105005374590489,-1.0495162964735505,0.2485140435493303,0.0029789199988976,0.0882480446963445,-0.0427842159021918,3
0.0996490575048585,-1.0553080424620622,0.2579220637149516,0.0011152889538075,0.0923248578026248,-0.0560560961977713,3
0.0907342079696429,-1.0602728803047596,0.2673282041562642,-0.0113089485472686,0.0882480446963445,-0.0807038783272462,3
0.0868609471316932,-1.06937564784434,0.2728357963810937,-0.0299453098878513,0.0749984229741849,-0.1129355743034575,3
0.0911215340534379,-1.0772346641973878,0.2680180629775995,-0.0485816610504975,0.057672004844346,-0.1489592582668277,3
0.0980997531696785,-1.0722698263546906,0.2597566746403557,-0.0616271190778736,0.0372879727101467,-0.1792949757813549,3
0.0922866871087883,-1.067304988511993,0.2563148994309145,-0.0516877229702507,0.0056927170576274,-0.1830869327047232,3
0.0791080758478626,-1.0726832804275976,0.2503486544747342,-0.0411271165142645,0.0107887292658274,-0.1773989973196708,3
0.0771714454288877,-1.0726832804275976,0.241630493130448,-0.0330513616296681,0.0240383509879871,-0.1755030188579867,3
0.0818225332383929,-1.057378701794409,0.2397940024807353,-0.0249756067450716,0.0342303587057863,-0.1603351601007231,3
0.0760094671775028,-1.0557214965349693,0.2391060233837089,-0.0162786415121119,0.041364769117826,-0.1318953899840893,3
0.0690312480612621,-1.0586190640131306,0.234745062987257,-0.0125513692439954,0.0484991795298657,-0.099663694007878,3
0.0639928341679618,-1.0569652477215017,0.2301566559494384,-0.0168998518604752,0.0586912039462658,-0.0712239549550349,3
0.0636055080841669,-1.0445514586308529,0.2276321862026993,-0.0280816686648248,0.0719408256684254,-0.0503681297489283,3
0.0605068994138071,-1.0218013177175236,0.2267148807399975,-0.0485816610504975,0.102516865520424,-0.0029685439516627,3
0.0546938333529169,-1.0031823285654555,0.2257975752772955,-0.0510665126218873,0.1167857030431043,0.015991271728969,3
0.0543065072691219,-0.991598836588432,0.2241904109932581,-0.0529301436669774,0.1259585116589837,0.0254711951011803,3
0.0593449211624222,-0.9783615283197796,0.221665941246519,-0.0560362055867306,0.1300353247652639,0.0273671735628644,3
0.0713583793679975,-0.940716873878358,0.212489127170882,-0.0585210571581204,0.1310545071685829,0.021679238177812,3
0.0775587715126827,-0.9266492684960802,0.2072108613117282,-0.0554149952383672,0.1310545071685829,0.0140952932672849,3
0.0829845114897779,-0.9167229817784964,0.2035397597366116,-0.0467180300054074,0.1279969098628234,0.0008234129717054,3
0.0864736210478982,-0.917963343997218,0.2012446163555478,-0.0318089409329413,0.1229009143532242,-0.0200324122344011,3
0.089572229718258,-0.9320275604116848,0.2023931279082342,-0.0168998518604752,0.1157665039411844,-0.0484721512872442,3
0.089572229718258,-0.9440245064616156,0.2056055767519997,0.0017364993021709,0.0964016542103041,-0.0920797490973509,3
0.0841464897411628,-0.953127274001196,0.2083574931401056,0.0048425612219241,0.0882480446963445,-0.1034556509312463,3
0.0771714454288877,-0.963056949686591,0.2127184535365574,0.0048425612219241,0.0821328333862247,-0.1129355743034575,3
0.0713583793679975,-0.975880803882336,0.2200606566867906,0.0023577096505343,0.0790752360804652,-0.1243114761373529,3
0.0713583793679975,-0.9928425877749644,0.2244197373589337,-0.0001271317429191,0.0780560369785453,-0.1318953899840893,3
0.0674819437260822,-1.0011150582009196,0.2251077164559602,-0.0001271317429191,0.0780560369785453,-0.1356873779712482,3
0.0605068994138071,-1.009387528626875,0.22855137138971,0.0036001405251974,0.080094435182385,-0.1318953899840893,3
0.0581797681070717,-1.014352366469572,0.2345157366215816,0.0073274127933139,0.0841712482886652,-0.126207454599037,3
0.0636055080841669,-1.0098043716675928,0.2402526552120863,0.0079486231416772,0.0882480446963445,-0.120519488150194,3
0.0690312480612621,-0.9994612419092904,0.2448429419742138,-0.0032331936626722,0.0923248578026248,-0.1129355743034575,3
0.0713583793679975,-0.995736766285315,0.246448226533942,-0.0082028866275155,0.0923248578026248,-0.120519488150194,3
0.0698090750328176,-1.0031823285654555,0.2450722683398892,-0.0075816762791521,0.0943632560064644,-0.126207454599037,3
0.0647706611395174,-1.0155961176561044,0.2418598194961236,-0.0013695626175822,0.0994592682146645,-0.126207454599037,3
0.0686439219774672,-1.020144112458084,0.2397940024807353,0.0054637715702874,0.1045552804228645,-0.1224154666118781,3
0.0686439219774672,-1.026349312519503,0.2404819815777619,0.0060849819186508,0.1065936786267042,-0.1243114761373529,3
0.0608942254976021,-1.0230416799362452,0.2441530831528785,-0.0013695626175822,0.1055744795247844,-0.1337913684457735,3
0.0488807672920268,-1.0102178257405,0.246906879265293,-0.0082028866275155,0.1045552804228645,-0.1432712918179847,3
0.0388039395054263,-1.0023554204196412,0.2492020226463568,-0.0088240969758788,0.107612877728624,-0.152751215190196,3
