timestamp,ax,ay,az,gx,gy,gz,label
74,0.0120625657037453,0.2503053624871107,0.554610229721149,0.0098122541867673,0.1657073768254625,-0.2513423437080954,3
85,0.0174883056808404,0.2569240166214371,0.5849001072334014,0.0141607368032472,0.1626497628211022,-0.2551343006314636,3
96,0.0260158291322611,0.254439903216183,0.6174832484024085,0.0197516502943902,0.1392081333811433,-0.304429895954204,3
107,0.0318288951931512,0.2445136164985989,0.6323969810685504,0.016645588374637,0.1310545071685829,-0.3347656445325218,3
119,0.0326035473607412,0.234170486740297,0.6303330437774711,0.011054674883494,0.1300353247652639,-0.3594134266619966,3
130,0.0287271117188259,0.2217600866174588,0.6248254515526418,0.0067061922670141,0.1402273324830631,-0.3745812854192603,3
141,0.0217520674065508,0.1907306973425529,0.6073872491397608,0.0042213508735607,0.1657073768254625,-0.3821652303297874,3
152,0.0376419612540414,0.1704612808666669,0.5904058197339217,0.0048425612219241,0.1952642342741421,-0.3859571872531556,3
163,0.0585670941908667,0.1456404806209907,0.5768680452618329,0.0060849819186508,0.2166674488116604,-0.3878531657148397,3
175,0.0763967932612978,0.1336435345710596,0.5674600250962115,0.0029789199988976,0.2258402741261406,-0.3821652303297874,3
186,0.0934486653601733,0.1377780753001319,0.5589711901176009,-0.0057180452340621,0.22482105832562,-0.3688933500342078,3
197,0.1019730140076283,0.1357108049355957,0.5534635978927717,-0.011930158895632,0.2023986446861818,-0.3366616229942059,3
208,0.0980997531696785,0.1146144803138953,0.5491045172206285,-0.0137938001186585,0.1860914089596618,-0.3271816996219947,3
220,0.0903468818858479,0.0831716369660821,0.5470387002052403,-0.0249756067450716,0.1718225881355824,-0.3233897426986264,3
231,0.0841464897411628,0.0720015990619656,0.5513977808773833,-0.0398846958175378,0.168764974131222,-0.3139098193264152,3
242,0.0787207497640676,0.0955820370889202,0.5566760467365371,-0.044854388782381,0.1820146125519825,-0.2930539941203086,3
253,0.081047881070803,0.0839985451118966,0.5495631699519794,-0.0392634854691744,0.2095330550982215,-0.2646142240036748,3
265,0.0880229253830781,0.0587642907933132,0.5433675986301237,-0.0349150028526945,0.2380706800477796,-0.2380704634125159,3
276,0.1039128192305687,0.0438731662330317,0.54107245524906,-0.0398846958175378,0.2574355130800591,-0.2210066261935681,3
287,0.1221266695808292,0.0413890528277777,0.536713374576917,-0.050445302273524,0.2666083383945393,-0.2058387363725139,3
298,0.1364672590931399,0.0471807988162894,0.5240929055675301,-0.0460968196570441,0.2717043506027393,-0.1413753133563006,3
310,0.1465409120757749,0.0554532692422446,0.5082599877143773,-0.0342937925043312,0.2666083383945393,-0.099663694007878,3
321,0.1492553694663052,0.0616618582714744,0.5011471109298196,-0.0243543963967083,0.2564163139781392,-0.0750159429421938,3
332,0.1360799330093449,0.0806909125286387,0.5165213760516213,-0.0156574311637485,0.2452051071584201,-0.073119933416719,3
343,0.144216955573005,0.0959954911618275,0.5261587225829182,-0.0088240969758788,0.2401090949502201,-0.0807038783272462,3
354,0.1558430876947854,0.0964089452347347,0.5337302520988269,-0.0057180452340621,0.2411282940521399,-0.0825998567889303,3
366,0.1581702190015208,0.085242296298429,0.5385498652266297,-0.0094453175021786,0.2431666922559796,-0.078807899865562,3
377,0.1527444790244255,0.0819312747473605,0.5413017816147354,-0.0237331860483449,0.2482627044641797,-0.078807899865562,3
388,0.1473187390473304,0.0984796045670815,0.5413017816147354,-0.0603846882032104,0.273742748806579,-0.1110395958417734,3
399,0.1511919998852801,0.1340569886439669,0.5385498652266297,-0.064111960471327,0.2869923705287386,-0.1299994115224052,3
411,0.1663072415651807,0.1737723024177352,0.5346475575615287,-0.0547937848900039,0.2941267809407784,-0.152751215190196,3
422,0.1837464397478513,0.195282081112343,0.5328129466361249,-0.0405059061659011,0.2890307687325783,-0.1849829422301979,3
433,0.2042874214048472,0.175012664636457,0.5332715993674759,-0.0324301512813047,0.2717043506027393,-0.2304865185019887,3
444,0.2093258352981474,0.170874734939574,0.5390085179579805,-0.0342937925043312,0.2452051071584201,-0.2797821138247291,3
456,0.2085511831305575,0.1754261187093642,0.5449728831898522,-0.0411271165142645,0.2197250628160208,-0.3214937642369423,3
467,0.2108751396333273,0.1894903351238312,0.5516289869673676,-0.0442331784340176,0.201379445584262,-0.3480375248281013,3
478,0.2155262274428326,0.2089362324217135,0.5553000885424844,-0.0373998544240843,0.1942450351722222,-0.3518294817514695,3
489,0.2225012717551077,0.222173540690366,0.5539222506241225,0.0029789199988976,0.2187058470155001,-0.3385576014558901,3
501,0.2430422534121035,0.2349973948861114,0.5486458644892777,0.0234789123845703,0.2421474931540598,-0.3328696660708377,3
512,0.2600941255109791,0.2490616113005783,0.5360253954798906,0.0464637563416328,0.268646736598379,-0.3214937642369423,3
523,0.3461313129769124,0.2697478708171824,0.5018350900268461,0.0849788997195248,0.2900499678344981,-0.3139098193264152,3
534,0.3732600128623883,0.2676806004526463,0.4963293775263255,0.103615250882171,0.2971843782465379,-0.3309736876091535,3
546,0.3918611892964438,0.2395487786559016,0.4977053357203785,0.0532970905295025,0.2829155574224584,-0.3499335032897854,3
557,0.4383657177835652,0.1998334648821332,0.5082599877143773,-0.0318089409329413,0.2523395175704598,-0.3518294817514695,3
568,0.4658817437528363,0.1721150971582957,0.5277640071426466,-0.07156650500756,0.2085138559963017,-0.3366616229942059,3
579,0.4623958089986814,0.154326405119853,0.5472680265709157,-0.044854388782381,0.107612877728624,-0.2930539941203086,3
591,0.4589066994405612,0.1563970644521997,0.5610351274086801,-0.0398846958175378,0.0617488012520253,-0.2684062119908337,3
602,0.4484425455701657,0.1733588483448281,0.5750334343364291,-0.0405059061659011,0.0199615378817069,-0.2210066261935681,3
613,0.4217011717684846,0.1965224433310647,0.5888005351741935,-0.0436119680856543,-0.0116337177708123,-0.1679190739474595,3
624,0.3937978197154187,0.2354108489590186,0.59247163674931,-0.0460968196570441,-0.0238641403910521,-0.1243114761373529,3
635,0.3922485153802388,0.2420295030933449,0.5803098204712741,-0.0411271165142645,-0.0157105141784917,-0.093975727559035,3
647,0.3903118849612639,0.2345839408132041,0.5642475762524459,-0.0206271241285918,0.0169039405759473,-0.0882878232377733,3
658,0.3984489075249239,0.2205197243987372,0.5520876396987185,0.0098122541867673,0.0617488012520253,-0.1148315527651416,3
669,0.4077510831439346,0.2076924812351811,0.540155149786358,0.0377667911086731,0.0974208700108248,-0.1546471936518801,3
680,0.4143388013724147,0.1936282648207141,0.5234049264705034,0.0296910362240767,0.0841712482886652,-0.2361744849508318,3
691,0.4310033473874953,0.2027310323602944,0.4997711527357667,0.009191043838404,0.0383071718120665,-0.2892620371969404,3
703,0.4480552194863707,0.2432698653120665,0.4733835828886152,0.0004940786054442,-0.0218257254886115,-0.3366616229942059,3
714,0.4534809594634659,0.2991200548326487,0.4474546657728148,0.0104334645351307,-0.0931698463076096,-0.370789328495892,3
725,0.4306160213037003,0.2846389953774638,0.4385052983385444,0.0241001329108701,-0.1675715644323672,-0.397333089087051,3
736,0.4058112779209941,0.2093496864946208,0.4442422169290491,0.0178880090713637,-0.2246468811258866,-0.4106049072550491,3
748,0.3841114928165788,0.1754261187093642,0.4373586665101669,-0.0249756067450716,-0.245030913260086,-0.4106049072550491,3
759,0.362795858991993,0.1808044106249689,0.4311630951883112,-0.1051119554206088,-0.2389157019499661,-0.4068129503316809,3
770,0.3403182469160222,0.2010738271008549,0.4396519301669218,-0.1995361624643759,-0.2246468811258866,-0.3821652303297874,3
781,0.3190026130914364,0.2358243030319258,0.4511257673479313,-0.3169452032872691,-0.1808211861545268,-0.2247985831169364,3
793,0.3042746974953306,0.2896038332201612,0.4456181751231021,-0.3206724755553856,-0.1696099626362069,-0.1375833564329324,3
804,0.3011729140210053,0.3156683846523698,0.4357515022261296,-0.3070058173575826,-0.1747059748444069,-0.0863918137122985,3
815,0.3000109357696204,0.2796775465025771,0.485772845808018,-0.2896118767137267,-0.179801987052607,-0.0484721512872442,3
826,0.2953598479601152,0.278847249388952,0.5153728644989349,-0.2678694636313273,-0.168590763534287,0.0084073578822325,3
838,0.2899341079830199,0.2602316492046949,0.5197338248953869,-0.2417785577545116,-0.1431107191918877,0.0937265750407618,3
849,0.2752093671908798,0.2242408110549021,0.5043595597735853,-0.2181725238049585,-0.1166114924461693,0.1828378112502406,3
860,0.2600941255109791,0.1961089892581574,0.4887559682861081,-0.2076119173489723,-0.0911314481037699,0.2150695072264519,3
871,0.2748220411070848,0.1969392863717826,0.4889852946517835,-0.2063694966522456,-0.0717666150714904,0.2017976269308724,3
883,0.2655198654880743,0.1878365188322023,0.5016057636611706,-0.2212785653688389,-0.0676898019652103,0.2264454090603473,3
894,0.2240505760902876,0.1584643348167358,0.5107844574611164,-0.2417785577545116,-0.0401713594189712,0.2283413875220314,3
905,0.198474355343957,0.1832851350624121,0.5206511303580889,-0.2392937061831217,-0.0075569046645321,0.2586771361003492,3
916,0.1461535859919799,0.3131842712471158,0.5523169660643942,-0.2094755585719987,0.0107887292658274,0.3174526237315102,3
928,0.1302636921444892,0.3392488226793244,0.5670013723648605,-0.1641270810062371,0.0107887292658274,0.3610602215416169,3
939,0.1236759739160091,0.3334570766908125,0.5807684732026249,-0.1144301310019319,-0.0044993073587726,0.3781240898243552,3
950,0.1163136035199391,0.3392488226793244,0.5853587599647524,-0.0684604430878069,-0.0279409367987314,0.3876039821327758,3
961,0.108563907040074,0.3835121312550721,0.5770973716275083,-0.0268392479680981,-0.0462865707290911,0.4103557858005666,3
973,0.0984870792534735,0.4377051155162147,0.5642475762524459,0.0725546622184485,-0.0574977775488102,0.4842991632527818,3
984,0.0907342079696429,0.4629427588026089,0.5553000885424844,0.1104485850700407,-0.0666706028632904,0.4899870986378342,3
995,0.0926740131925834,0.4397757748485616,0.5555294149081598,0.1210091813480906,-0.0972466594138898,0.4596513500595163,3
1006,0.1043001453143637,0.348348201251094,0.5731969436867164,0.1067213128019242,-0.1482067314000877,0.4046678504155142,3
1018,0.1190248861065039,0.3591047850823031,0.5770973716275083,0.0793879964063182,-0.2001860191868063,0.3439963843226692,3
1029,0.1201900391618544,0.3731690014967702,0.578933862277221,0.0520546596548394,-0.2378965028480462,0.2909088631403512,3
1040,0.0969346001143281,0.3355243470553486,0.5816876583896358,0.0265849743043235,-0.2643957462923654,0.249197212728138,3
1051,0.0698090750328176,0.2792640924296699,0.5851294335990768,-0.0026119833143089,-0.2888565414370425,0.2055896149180313,3
1063,0.0558558116043019,0.2643695789015778,0.5888005351741935,-0.0659756016943534,-0.3703926866724407,0.1657739429675022,3
1074,0.0419025481757861,0.2780203412431376,0.5977499026084637,-0.0653543913459901,-0.3999495441211202,0.2093815718413995,3
1085,0.0136118700389251,0.2784337953160448,0.6163347368497224,-0.044854388782381,-0.3856807065984399,0.2567811576386651,3
1096,-0.0135168298465508,0.2573374706943442,0.6385925523904062,-0.0193847034318651,-0.334720634612242,0.2738449948576129,3
1107,-0.0181647428520904,0.1932148107478069,0.6700290617310359,0.0023577096505343,-0.2766261689126052,0.2605731145620334,3
1119,-0.0146788080979357,0.1638426267323405,0.6762246330528917,0.011054674883494,-0.2470693114639257,0.2340293539708744,3
1130,-0.0135168298465508,0.1472942969126195,0.6842548153001514,0.0011152889538075,-0.2521653236721257,0.2036936053925566,3
1141,-0.0115770246236103,0.1584643348167358,0.7003170595189796,-0.0305665202362146,-0.2684725427000448,0.1809418327885565,3
1152,-0.0181647428520904,0.1745992105635497,0.7253286711720782,-0.0740513464010134,-0.277645368014525,0.1695659309546611,3
1163,-0.0445187905699765,0.170874734939574,0.7583704650724361,-0.1423846577459012,-0.2919141554414028,0.1809418327885565,3
1175,-0.080175013906873,0.1621888104407116,0.7808576069787955,-0.170339194667807,-0.2970101676496029,0.188525746635293,3
1186,-0.1061385607369986,0.1692209186479451,0.7787917899634073,-0.1958088901962593,-0.2939525536452425,0.1923177346224518,3
1197,-0.1247429119750196,0.1799775024791544,0.7735154038285623,-0.2094755585719987,-0.2715301567044051,0.2074855933797154,3
1208,-0.2018652499057373,0.2068655730893667,0.8031154225194798,-0.2001573829906756,-0.2113972427051262,0.2529891696515062,3
1220,-0.2417820601643786,0.2349973948861114,0.7918709117041454,-0.1796573804270665,-0.1054002689278494,0.3098686788209831,3
1231,-0.253408192286159,0.2656099411202995,0.7572238332440587,-0.1616422294348472,0.0219999360855465,0.3534763076948804,3
1242,-0.2390707775778138,0.2962224873544875,0.7168379564691586,-0.129960420244825,0.1320737229691036,0.3724361233755123,3
1253,-0.2069036637990376,0.3127708171742085,0.6798957346280085,-0.0672180223910802,0.2054562419919413,0.3629562310670916,3
1265,-0.1894644656163671,0.3123573631013012,0.6484592252873788,0.0526758801811392,0.268646736598379,0.2681570594725605,3
1276,-0.1894644656163671,0.3268384225564863,0.6165640632153978,0.0390092118053998,0.2839347565243783,0.2093815718413995,3
1287,-0.1696981361269612,0.3665503473624438,0.5855880863304278,-0.0137938001186585,0.2890307687325783,0.1847337897119247,3
1298,-0.0871500582191482,0.3872366068790479,0.5188146397083762,-0.0616271190778736,0.2839347565243783,0.1847337897119247,3
1310,-0.0794003617392831,0.3884769690977695,0.4908217853014963,-0.0846119528569997,0.268646736598379,0.1980056700075042,3
1321,-0.0685488817850927,0.3963359854508175,0.4646635418200202,-0.1007634728041289,0.2564163139781392,0.1942137130841359,3
1332,-0.0216538524102107,0.4372916614433075,0.4444715432947246,-0.102627103849219,0.2523395175704598,0.1866297681736088,3
1343,0.0023730640009398,0.4703883210827496,0.4520430728106332,-0.07777861866913,0.2411282940521399,0.2283413875220314,3
1355,0.0089607822294199,0.4501189046068636,0.4830209294199121,-0.0113089485472686,0.2003602464823421,0.342100405860985,3
1366,0.0120625657037453,0.3996470070018859,0.5084893140800528,-0.0106877381989053,0.1820146125519825,0.3458923627843533,3
1377,0.026790481299851,0.3806179527447216,0.5190458457983604,-0.0454755991307443,0.1595921655153426,0.3212445806548785,3
1388,0.0422930490635466,0.3826852231092577,0.523175600104828,-0.104490734894309,0.1381889342792235,0.2928048416020353,3
1399,0.0601195733300121,0.4848659915701238,0.5413017816147354,-0.1635058604799373,0.123920113455144,0.2890128536148765,3
1411,0.062443529832782,0.5407161810907061,0.552775618795745,-0.1927028384544425,0.1157665039411844,0.3155566142060355,3
1422,0.0481061151244368,0.5465079270792178,0.5585125373862498,-0.1697179843194437,0.1096512759324637,0.3534763076948804,3
1433,0.026403155216056,0.5084464295970784,0.5605764746773293,-0.1007634728041289,0.1035360813209447,0.3781240898243552,3
1444,0.0174883056808404,0.4505323586797707,0.5585125373862498,-0.0168998518604752,0.0964016542103041,0.368644166452144,3
1455,0.0240760239093206,0.4062656611362122,0.5550707621768087,0.0675849692536053,0.0637872161544659,0.3326204824887738,3
1467,0.034927503863511,0.3946821691591886,0.5566760467365371,0.063236476459189,0.0454415822241062,0.3515803292331962,3
1478,0.0388039395054263,0.397993190710257,0.5610351274086801,0.0477061770383595,0.0474799804279459,0.3970839055049872,3
1489,0.0306637421378008,0.4075060233549339,0.5660840669021586,0.0265849743043235,0.0770368378766255,0.4482754482256209,3
1500,0.0171009795970455,0.4492886074932384,0.5688378630145732,0.0079486231416772,0.1269777107609035,0.482403153727307,3
1512,0.0318288951931512,0.4617023965838873,0.5619543125956911,0.0029789199988976,0.1779377994457023,0.4937790555612024,3
1523,0.0519793759623866,0.4521861749713997,0.5612644537743557,0.0054637715702874,0.2105522542001414,0.4786111968039388,3
1534,0.0686439219774672,0.4588048291057259,0.5688378630145732,0.0060849819186508,0.2146290506078207,0.4539634146744639,3
1545,0.0783334236802726,0.4749397048525398,0.5777872304488436,0.0079486231416772,0.1922066202697817,0.4312116110066732,3
1556,0.0717457054517925,0.4687345047911207,0.5901764933682463,0.0278274051789866,0.0974208700108248,0.4065638288771984,3
1568,0.053919181185327,0.444740612691259,0.606009411221399,0.0402516325021265,0.0586912039462658,0.4027718408900395,3
1579,0.0376419612540414,0.4281922828715379,0.6229889609029291,0.049569818261386,0.0484991795298657,0.4046678504155142,3
1590,0.0275651334674409,0.430259553236074,0.6397410639430924,0.0619940557624623,0.0739792238722651,0.4179397307110937,3
1601,0.0101259352847704,0.4492886074932384,0.6482298989217029,0.0787667860579549,0.1218817152513043,0.4293156325449891,3
1613,-0.0042146542275402,0.4029580285529545,0.6401997166744433,0.0862213204162515,0.1646881777235427,0.4141477427239348,3
1624,-0.0073132628979,0.3487616553240011,0.6369872678306778,0.0663425383789422,0.185072209857742,0.3667481879904599,3
1635,0.0050875213914702,0.3504188605834408,0.6418050012341718,0.0197516502943902,0.1860914089596618,0.3041807123721401,3
1646,0.0120625657037453,0.3864096987332334,0.6477712461903521,-0.0349150028526945,0.1758993845432618,0.2473012342664539,3
1658,0.0062494996428551,0.4166087908945142,0.6539668175122078,-0.0964149800097126,0.1279969098628234,0.2112775503030837,3
1669,-0.0100277202884304,0.4488751534203312,0.6615383470281168,-0.085233163205363,0.1137280890387439,0.2359253324325585,3
1680,-0.0313433541130163,0.4670772995316811,0.6624556524908184,-0.0529301436669774,0.1096512759324637,0.2624690930237175,3
1691,-0.0359944419225215,0.4563241046682826,0.6514423477654688,-0.0150362208153852,0.1096512759324637,0.2719490163959288,3
1702,-0.0189425698236459,0.4554938075546575,0.6629161849464782,0.0160243780262737,0.1086320768305439,0.2643650714854016,3
1714,0.0031477161685297,0.4654234832400522,0.678747223075322,0.0396304221537631,0.1157665039411844,0.2681570594725605,3
1725,0.0252380021607055,0.4819718130597732,0.6837961625688006,0.0582667834943458,0.1381889342792235,0.2965967985254036,3
1736,0.0469409620690863,0.4993470510253087,0.6737001633061528,0.0719334518700852,0.168764974131222,0.3383084178738261,3
1747,0.0667072915584923,0.5018277754627521,0.6564912872589471,0.0551607215745926,0.2146290506078207,0.3515803292331962,3
1759,0.0802700540992475,0.5150684726992153,0.6374459205620289,0.0222364916878436,0.2238018592237001,0.3098686788209831,3
1770,0.0903468818858479,0.5378186136125447,0.6186298802307859,-0.0113089485472686,0.2115714533020612,0.2586771361003492,3
1781,0.0953852957791482,0.5411296351636132,0.6053214321243725,-0.0355362132010579,0.1769186003437824,0.2150695072264519,3
1792,0.0748443141221523,0.5494021055895684,0.6037142678403353,-0.0473392403537708,0.1371697184787028,0.1904217250969771,3
1804,0.0523667020461815,0.5907712356549656,0.6066973903184255,-0.0467180300054074,0.1127088899368241,0.1771498448013976,3
1815,0.0326035473607412,0.6147685167226381,0.6151881050213449,-0.0324301512813047,0.1106704917329844,0.1638779645058181,3
1826,0.0248506760769106,0.6089767707341264,0.6229889609029291,-0.0063392555824254,0.1330929220710234,0.1562940506590816,3
1837,0.0364768081986909,0.587463603071708,0.6197765120591633,0.0222364916878436,0.1708033890336626,0.1581900291207657,3
1849,0.061281551581397,0.5618158946802172,0.6048627793930215,0.0427364840735163,0.2207442619179406,0.1525020626719228,3
1860,0.089959555802053,0.5423699973823349,0.5869640445244808,0.0296910362240767,0.2115714533020612,0.141126191901818,3
1871,0.1116625157104337,0.5390623647990771,0.5729676173210407,0.0129183161065205,0.1891490229640222,0.1297502900679226,3
1882,0.1349147799539945,0.5800180407915672,0.5479560056679423,0.0023577096505343,0.1595921655153426,0.1221663451573955,3
1894,0.1376292373445249,0.5750532029488697,0.5431382722644481,0.0023577096505343,0.1300353247652639,0.1164783787085525,3
1905,0.136854585176935,0.5452675648604962,0.5380893327709698,0.0073274127933139,0.1014976664185042,0.1164783787085525,3
1916,0.1356894321215845,0.5092767267107036,0.5312057823520877,0.0060849819186508,0.0780560369785453,0.1202703666957114,3
1927,0.1314288451998397,0.4869366509024706,0.5252395373959075,-0.0088240969758788,0.0617488012520253,0.1221663451573955,3
1938,0.1256157791389495,0.4960360294742403,0.5247808846645564,-0.0318089409329413,0.0505375944323063,0.1202703666957114,3
1950,0.1194122121902989,0.5249947594167994,0.5300591505237103,-0.0510665126218873,0.0393263709139863,0.108894464861816,3
1961,0.1112751896266388,0.5477482892979395,0.5433675986301237,-0.0355362132010579,0.0281151473956664,0.0918305965790777,3
1972,0.1000363835886534,0.5485751974437539,0.5626422916927175,-0.0100665278505419,0.0240383509879871,0.0652868670517094,3
1983,0.0752316402059473,0.4827987212055877,0.5835222693150396,0.0141607368032472,0.0311727614000268,0.0330551400117074,3
1995,0.0608942254976021,0.4306730073089813,0.5915543312866081,0.0241001329108701,0.0454415822241062,0.0046154009588643,3
2006,0.0481061151244368,0.3864096987332334,0.6000431662652186,0.0185092194197271,0.0648064152563857,-0.0105524888621899,3
2017,0.0407405699244012,0.3748262067562097,0.6000431662652186,0.0060849819186508,0.0902864429001843,-0.006760500875031,3
2028,0.0434550273149316,0.391787990648838,0.5904058197339217,-0.0026119833143089,0.1178049021450241,0.0103033363439166,3
2039,0.053531855101532,0.4070925692820267,0.5777872304488436,0.0036001405251974,0.141246531584983,0.0349511184733915,3
2051,0.0655453133071073,0.4083329315007483,0.567689351461887,0.0104334645351307,0.1453233446912632,0.0406390538584439,3
2062,0.0860831201601377,0.4166087908945142,0.5628716180583929,0.0216152813394802,0.1534769542052227,0.048222998768971,3
2073,0.1139896470171692,0.4310864613818884,0.5608058010430047,0.0414940633767896,0.1616305637191823,0.0577029221411822,3
2084,0.1484807172987153,0.4124708611976313,0.5426796195330973,0.0669637589052419,0.1646881777235427,0.0690787929112869,3
2096,0.1616561537556755,0.3839255853279794,0.5298298241580347,0.0843576893711614,0.1606113646172625,0.0709748024367617,3
2107,0.1756094171841913,0.357037514717767,0.5204218039924134,0.0862213204162515,0.1483809419970227,0.0652868670517094,3
2118,0.1868482232221766,0.3400757308251388,0.5190458457983604,0.0719334518700852,0.1249393125570638,0.0577029221411822,3
2129,0.1918866371154769,0.3334570766908125,0.527993333508322,0.0470849666899962,0.0913056587007049,0.0595989006028663,3
2140,0.1864608971383817,0.3442136605220217,0.5424502931674218,0.0067061922670141,0.0107887292658274,0.0994145414896048,3
2152,0.1825844614964664,0.3731690014967702,0.552775618795745,0.0098122541867673,-0.0197873272847719,0.1240623236190796,3
2163,0.1775460476031662,0.3859962446603263,0.5575933521992392,0.0253425536075968,-0.0330369490069315,0.141126191901818,3
2174,0.1635959589786159,0.3735858445374881,0.5601178219459784,0.0433576944218797,-0.0259025385948917,0.1581900291207657,3
2185,0.1558430876947854,0.3437968174813037,0.5718209854926634,0.0526758801811392,-0.0055185064606924,0.1771498448013976,3
2196,0.1748347650166014,0.3367647092740703,0.5821463111209866,0.0514334493064761,0.0158847247754266,0.2036936053925566,3
2208,0.1914993110316819,0.346694384959465,0.59247163674931,0.0464637563416328,0.0260767491918267,0.2359253324325585,3
2219,0.1961472240372216,0.3611720554468392,0.6021089832806069,0.0427364840735163,0.0219999360855465,0.2605731145620334,3
2230,0.1934359414506568,0.3715151852051413,0.6083045546024627,0.0402516325021265,0.0026351197518679,0.2681570594725605,3
2241,0.1849084179992362,0.375239660829117,0.6101391655278665,0.0327970981438298,-0.0473057698310109,0.249197212728138,3
2253,0.1748347650166014,0.3793775905259999,0.6108290243492017,0.0321758877954665,-0.0585169933493308,0.2435092773430857,3
2264,0.1666945676489758,0.3835121312550721,0.6126636352746057,0.0340395188405565,-0.0513825829372911,0.2454052558047698,3
2275,0.1554557616109903,0.375239660829117,0.6298743910461201,0.035903160063583,-0.0320177499050116,0.2510931911898222,3
2286,0.1496426955501002,0.3582778769364887,0.6395098578531081,0.0290698258757133,-0.0095953028683718,0.2435092773430857,3
2298,0.1500300216338952,0.3549668553854202,0.6420343275998472,0.0141607368032472,0.0077311152614671,0.2264454090603473,3
2309,0.1546811094434004,0.3665503473624438,0.6365286150993268,-0.0007483522692188,0.0179231396778672,0.2112775503030837,3
2320,0.1558430876947854,0.3719286392780485,0.6298743910461201,-0.0050968348856987,0.0219999360855465,0.2055896149180313,3
2331,0.15196665205287,0.3719286392780485,0.6307916965088222,0.0017364993021709,0.0240383509879871,0.2093815718413995,3
2342,0.1500300216338952,0.3719286392780485,0.6344627980839387,0.0296910362240767,0.0372879727101467,0.2188614952136108,3
2354,0.1484807172987153,0.3640696229250006,0.6344627980839387,0.03031224657244,0.0423839682197459,0.2131735287647678,3
2365,0.1461535859919799,0.3528995850208841,0.6337748189869122,0.0160243780262737,0.0383071718120665,0.2036936053925566,3
2376,0.1542937833596055,0.3611720554468392,0.634233471718263,-0.0057180452340621,0.0301535622981069,0.1961096915458201,3
2387,0.1593321972529056,0.3698613689135124,0.6328556337999014,-0.0212483446548915,0.0230191518860672,0.1999016484691883,3
2398,0.1585575450853157,0.3797910445989072,0.6314796756058485,-0.0255968272713714,0.0219999360855465,0.2131735287647678,3
2410,0.1589448711691107,0.3950956232320958,0.6275792476650564,-0.0206271241285918,0.0311727614000268,0.2302373970475062,4
2421,0.1643706111462059,0.4087497745414663,0.6174832484024085,-0.0106877381989053,0.0464607813260261,0.2397172893559268,4
2432,0.1721203076260709,0.4112304989789096,0.6037142678403353,0.0048425612219241,0.0495183786317856,0.2321333755091903,4
2443,0.1806478310774915,0.4137112234163529,0.5952254328617246,0.011054674883494,0.0311727614000268,0.2131735287647678,4
2455,0.1845210919154413,0.4273653747257235,0.5952254328617246,0.0191304297680904,0.0036543188537877,0.1847337897119247,4
2466,0.1891721797249465,0.434397482932957,0.5931596158463365,0.0284486155273499,-0.0269217376968116,0.1543980411336069,4
2477,0.1911119849478869,0.4174356990403287,0.5814583320239601,0.03652436023401,-0.0574977775488102,0.1240623236190796,4
2488,0.1961472240372216,0.4124708611976313,0.5711330063956369,0.0452213356449061,-0.0901122490018501,0.0994145414896048,4
2500,0.2120371178847122,0.4087497745414663,0.5557587412738352,0.0576455731459824,-0.1318994956735677,0.0842466827323412,4
2511,0.2240505760902876,0.4132977693434457,0.5458920683768629,0.0731758725668119,-0.1889747956684863,0.0709748024367617,4
2522,0.2232759239226976,0.4166087908945142,0.553234271527096,0.0918122237294581,-0.2694917418019647,0.0558069436794981,4
2533,0.2170755317780125,0.4066791152091195,0.5711330063956369,0.129084936232687,-0.4916777137729184,0.0046154009588643,4
2545,0.2151389013590376,0.3930283528675597,0.5858174126961033,0.1415091737337633,-0.6048091146608359,-0.0219283906960852,4
2556,0.2236632500064926,0.3768934771207458,0.6069267166841009,0.1508273696709592,-0.7046908103335894,-0.0314083140682965,4
2567,0.2368418612674184,0.3454540227407434,0.6794370818966572,0.1657364485654889,-0.7790925451569478,-0.0143444457855581,4
2578,0.2414929490769236,0.3231139469325105,0.6906797129876825,0.1930697547831585,-0.8310718329436664,0.0235752166394961,4
2590,0.2484679933891988,0.2920879466254152,0.6824202043747474,0.2291000465896606,-0.8840703198323048,0.0652868670517094,4
2601,0.2682343228786046,0.2581643788401587,0.6789784291653064,0.2595394350829562,-0.9574528388551424,0.0994145414896048,4
2612,0.2868354993126601,0.1928013566748997,0.6899917338906563,0.2651303485740992,-1.0461234612969836,0.1392301823763433,4
2623,0.2918739132059604,0.1228869507398504,0.7094957533189254,0.1638728175203988,-1.1653700567964205,0.2928048416020353,4
2635,0.3035000453277408,0.1166817506784314,0.725787323903429,0.0837364790227981,-1.1643508576945003,0.3610602215416169,4
2646,0.3302414191294217,0.1799775024791544,0.722345548693988,0.0054637715702874,-1.1582356463843806,0.3800200372222487,4
2657,0.3682215989690881,0.2738858005140653,0.6936628354657727,-0.0597634778548471,-1.1979845115508594,0.3439963843226692,4
2668,0.4023253431668393,0.424054353174655,0.6108290243492017,-0.1038695245459457,-1.3162117743595692,0.2776369517809811,4
2679,0.3562049659595473,0.4426699533589121,0.5892591879055443,-0.1274755686734351,-1.5037448933722442,0.1923177346224518,4
2691,0.2639705611528944,0.4414295911401904,0.5883418824428425,-0.129960420244825,-1.724911666241278,0.1107904433235002,4
2702,0.1566177398623753,0.4463944289828878,0.6099098391621911,-0.1144301310019319,-1.939963227800192,0.048222998768971,4
2713,0.0531413542137715,0.4480482452745167,0.6438708182495599,-0.0827483218119096,-2.1091508297727133,0.0084073578822325,4
2725,-0.0573100757471073,0.4335705747871425,0.6681925710813232,0.0048425612219241,-2.252858270512629,0.0254711951011803,4
2736,-0.1956648577610522,0.4066791152091195,0.6601623888340635,0.0470849666899962,-2.272223103544909,0.048222998768971,4
2747,-0.3561099257671729,0.3413160930438605,0.6280379003964074,0.0756607241382017,-2.310952769609468,0.0520149556923392,4
2758,-0.6669232339928137,0.1394352805595715,0.5720503118583389,0.0737970829151752,-2.3659896714005466,0.0614948790645505,4
2770,-0.8107037559838538,0.1344704427168742,0.5589711901176009,0.0433576944218797,-2.408796133872785,0.0918305965790777,4
2781,-0.9459599293274388,0.1526725888282241,0.5619543125956911,0.0011152889538075,-2.4200073573911047,0.1468141272868704,4
2792,-1.0657135349073283,0.1820447728436905,0.5594298428489519,-0.0243543963967083,-2.383316089530386,0.2302373970475062,4
2803,-1.1699613979195564,0.2010738271008549,0.536713374576917,-0.0206271241285918,-2.3038183591974284,0.3136606357443513,4
2815,-1.2773142192100757,0.1253676751772938,0.5075720086173509,-0.0001271317429191,-2.136669289017553,0.3705401449138282,4
2826,-1.3753648648815844,0.0149144362904724,0.4887559682861081,-0.0206271241285918,-2.0643058355078288,0.3591642430799328,4
2837,-1.4284571115971856,-0.0020473476021557,0.4743008883513173,-0.0591422675064837,-1.9980577268970303,0.3610602215416169,4
2848,-1.4637260088502873,0.0459404365975678,0.4515844200792824,-0.090824076696506,-1.947097638212232,0.3857080036710918,4
2860,-1.601693464780437,0.1228869507398504,0.3627843640065309,-0.1001422522778291,-1.923655992073672,0.4084598073388825,4
2871,-1.6702882792597344,0.2031444864332017,0.3159735895440997,-0.0827483218119096,-1.939963227800192,0.3970839055049872,4
2882,-1.7140815251602908,0.3049118008211606,0.2833904483750923,-0.0405059061659011,-2.0031537391052305,0.3515803292331962,4
2893,-1.7404355728781769,0.3595182391552104,0.2629691234841212,0.0154031574999739,-2.098958822054914,0.2928048416020353,4
2905,-1.771050207517808,0.3268384225564863,0.2404819815777619,0.0545395112262292,-2.202917397628352,0.2321333755091903,4
2916,-1.8129068229993897,0.272642049327533,0.2088161458714566,0.0104334645351307,-2.3843353053309064,0.1164783787085525,4
2927,-1.852048981090441,0.2925014006983225,0.1711859449332798,-0.0361574235494212,-2.485236266899983,0.0406390538584439,4
2938,-1.895067574823408,0.3810314068176288,0.1287361308673002,-0.0697028637845336,-2.6187516999221,-0.0617440315828237,4
2950,-2.145810417217206,0.424054353174655,0.0727485423292318,-0.0902028561702063,-2.765516487488763,-0.1792949757813549,4
2961,-2.329510924270853,0.4037849366987689,0.0449831345637184,-0.1069755864656988,-2.8827246847843595,-0.2987419605691516,4
2972,-2.503906080901524,0.4091632286143735,0.0266276266881356,-0.1237482964053186,-2.942857582085038,-0.4106049072550491,4
2984,-2.6352858186031938,0.4368782073704003,0.0261689739567846,-0.1305816305931883,-2.940819183881198,-0.5357398274278982,4
2995,-2.744187944228893,0.4430834074318194,0.0222666662916837,-0.1237482964053186,-2.87660947347424,-0.6646666734603247,4
3006,-2.8507629385478563,0.4418430452130977,-0.0002204756146756,-0.1038695245459457,-2.5891948424734204,-0.7954895911458075,4
3018,-2.9457149755490053,0.4625293047297016,-0.0431289424120063,-0.0957937696613493,-2.429180182705585,-0.7708417468887513,4
3029,-3.0344634456015034,0.5084464295970784,-0.1043929170849197,-0.0721877153559234,-2.3119719854099885,-0.7177542257064333,4
3040,-3.184057033653433,0.5117574511481469,-0.2312837065515076,-0.0367786338977846,-2.24164706369291,-0.6798345322175884,4
3052,-3.2398637377595656,0.4819718130597732,-0.2900250912019907,-0.011930158895632,-2.192725373211951,-0.6855224986664314,4
3063,-3.275129460208701,0.4720421373743785,-0.3363772129330712,-0.0082028866275155,-2.1529765080454726,-0.732922084463697,4
3074,-3.312334987880778,0.485696288683749,-0.3627647827802226,-0.0193847034318651,-2.126477264601153,-0.7973855696074915,4
3086,-3.3557409076975397,0.5092767267107036,-0.3774491890806891,-0.0268392479680981,-2.104054834263114,-0.8315132751091776,4
3097,-3.4111602857198764,0.5307865054053112,-0.3985603727929955,0.0029789199988976,-2.00111532420279,-0.706378323872538,4
3108,-3.467354315909803,0.5742262948030553,-0.4219648201620568,0.0619940557624623,-1.9032719599394727,-0.5452197197363188,4
3120,-3.501458060107554,0.6060792032559651,-0.4455985938967936,0.1514485800193225,-1.7779101531299164,-0.3632053835853649,4
3131,-3.538663587779631,0.4976932347336799,-0.5346279763352203,0.2396606530456469,-1.6392987245982005,-0.2039427579108298,4
3143,-3.557267939017652,0.4410161370672832,-0.5991062795762083,0.2937060958443683,-1.514956116890564,-0.1072476078546145,4
3154,-3.566179613748901,0.4575644668870043,-0.6509641138078093,0.3079939643905346,-1.4191511508310866,-0.099663694007878,4
3165,-3.573154658061177,0.4823852671326805,-0.6860717247235556,0.2980545784608482,-1.3478070300120886,-0.1830869327047232,4
3177,-3.585171291070718,0.4683210507182135,-0.7198014977209403,0.2707212518873058,-1.2866550504996963,-0.3120138408647311,4
3188,-3.5863332693221026,0.4290191910173523,-0.7526139652556231,0.1756758446731118,-1.17352366631038,-0.4845482536434737,4
3199,-3.5704433754746123,0.3789607474852819,-0.778772208737099,0.1415091737337633,-1.1144099681116213,-0.5167799806834757,4
3211,-3.5313012173835605,0.385582790587419,-0.7950637793216025,0.13653948076892,-1.0481618595008235,-0.5243639255940028,4
3222,-3.3875206953925208,0.610217132952848,-0.7943758002245762,0.1638728175203988,-0.9839520822994616,-0.499716143464528,4
3233,-3.3041979653171176,0.7024682257283194,-0.7994228599937456,0.2073576335072612,-0.939107204924783,-0.4257727970761034,4
3245,-3.277843917599232,0.7459080151260634,-0.8225998607214403,0.2446303460104901,-0.9238191849987836,-0.304429895954204,4
3256,-3.337139731263484,0.7413566313562732,-0.8579349182785534,0.2732061034586956,-0.9299343963089036,-0.1925668560769344,4
3268,-3.454178879452843,0.7111575391949924,-0.8916665710002468,0.2974333681124849,-0.9431840180310632,-0.1470632798051436,4
3279,-3.5952449440533525,0.665237025359805,-0.907728815219075,0.3030242714256915,-0.921780786794944,-0.3309736876091535,4
3290,-3.733212399983503,0.6255217115860366,-0.9022212229942456,0.2719636725840325,-0.8443214546658261,-0.520571937606844,4
3302,-3.832425023906396,0.607733019547594,-0.8889127748878323,0.2272364155445706,-0.711825220745629,-0.7215461826298016,4
3313,-3.8320376978226007,0.5551938515780803,-0.8978621423221026,0.1800243272895917,-0.5395802051519577,-0.903560643035918,4
3324,-3.738250813876803,0.5634697109718462,-0.933887058700551,0.13467584972383,-0.3581622640522009,-1.0324873958769727,4
3336,-3.63167581955784,0.5965629816434775,-0.9845963813794658,0.1005091889624179,-0.2164932382147254,-1.0438632977108682,4
3347,-3.5603665476880115,0.6085599276934084,-1.033700419498652,0.096160706345938,-0.1359763087798479,-0.9168325233314976,4
3359,-3.542152697337751,0.5949091653518486,-1.075003601736254,0.1601455452522823,-0.0839970376917302,-0.4712763733478942,4
3370,-3.558042591185242,0.5634697109718462,-1.105979578621224,0.1856152306027982,-0.06361298885893,-0.2797821138247291,4
3381,-3.594470291885763,0.5303730513324041,-1.1220418228400524,0.1874788718258247,-0.0269217376968116,-0.1660230954857755,4
3392,-3.629351863055069,0.5287192350407751,-1.116075577883872,0.1676000897885154,0.0281151473956664,-0.1224154666118781,4
3404,-3.65570273596899,0.5965629816434775,-1.0591706838831014,0.1334334188491669,0.1055744795247844,-0.1110395958417734,4
3415,-3.6495023438243046,0.6441407007381045,-1.0470088676050653,0.0949182856492113,0.2023986446861818,-0.0977676844824033,4
3426,-3.6320631456416335,0.7004009553637832,-1.0511405016358415,0.0564031422713193,0.3053380044590982,-0.0712239549550349,4
3437,-3.6076489031466887,0.7190165555480403,-1.061695153629841,0.0247213432592334,0.3940085267093344,-0.044680194363876,4
3449,-3.590597031047813,0.6846795336898767,-1.0727084583551905,-0.0050968348856987,0.4602566520187333,-0.0427842159021918,4
3460,-3.608036229230484,0.6491021496129912,-1.0784453769456952,-0.090824076696506,0.5489271909675704,-0.126207454599037,4
3471,-3.6723672819840703,0.6263520086996618,-1.071561826526813,-0.1367937544326946,0.6100793207673699,-0.2039427579108298,4
3482,-3.752978729472908,0.6267654627725691,-1.0509111752701663,-0.1808998113017296,0.7018074737205674,-0.2873660587352562,4
3494,-3.776618319800264,0.7446676529073417,-0.9632577510257926,-0.2200361446721122,0.8190156209203617,-0.3537254912769442,4
3505,-3.7680939711528088,0.8365052916099058,-0.8912079182688959,-0.2467482507193548,0.9596654476559172,-0.3745812854192603,4
3517,-3.7522040773053194,0.959372319587376,-0.8460043080905016,-0.2560664364786143,1.1349682108427557,-0.3385576014558901,4
3528,-3.674307087207011,1.045421601269239,-0.8673429384441748,-0.249854312639108,1.309251708133271,-0.2684062119908337,4
3539,-3.563855657246132,1.069828947442008,-0.9437537315975232,-0.2430209784512383,1.400979727497662,-0.1925668560769344,4
3550,-3.466579663742213,1.0611396339753347,-1.0137377473390317,-0.2573088571753411,1.195101108143434,-0.0920797490973509,4
3562,-3.4018581101008656,1.0305270877411468,-1.0272755218111207,-0.2815361218291303,0.9983951137204764,-0.099663694007878,4
3573,-3.396045044039976,0.9804720331768872,-0.97840081005761,-0.3063845968312828,0.8506108598742801,-0.0920797490973509,4
3584,-3.461928575932708,0.8919420270575809,-0.7987348808967192,-0.3200512652070222,0.8088235965039616,-0.0086565104005057,4
3596,-3.452242249033868,0.8911151189117664,-0.7255384163114451,-0.3051421761345561,0.87812931911912,0.1752538663397135,4
3607,-3.430148788237727,0.8542939836483485,-0.6828592758797901,-0.2566876468269777,1.0187791458546755,0.4350035679300415,4
3618,-3.429761462153932,0.8154089669882054,-0.6757463990952324,-0.1958088901962593,1.2032547176573931,0.7080251498159489,4
3630,-3.4154240474455864,0.8509863510650908,-0.709476172092617,-0.151081622978861,1.3979221301919025,0.905207375787957,4
3641,-3.385193564085785,0.928759773353188,-0.7712006792211903,-0.1753088876326502,1.5569175908578174,0.9317511674429066,4
3652,-3.4138747431104064,1.0052928334225637,-0.8253517771095462,-0.2237634169402287,1.4600934256964202,0.8521198546056391,4
3664,-3.463090554184093,1.0441812390505172,-0.804930452218575,-0.270975515373144,1.3286165411655508,0.7592167236003734,4
3675,-3.3933337614534107,0.9999145415069588,-0.5293515902003754,-0.3088694484026726,1.2735796393744716,0.6871693246098423,4
3686,-3.393721087537206,0.9378591519249576,-0.4061319023089041,-0.328748230439982,1.372442202739709,0.6644175209420515,4
3698,-3.441778095163473,0.9200704598865148,-0.3439487424489799,-0.3157027825905423,1.6292809107787354,0.6966492479820535,4
3709,-3.4658050115746235,0.8973203189731855,-0.2943860515984426,-0.2647634017115741,1.9870207139756455,0.7592167236003734,4
3720,-3.4646430333232385,0.8667043837711866,-0.239315768523076,-0.1982937417676492,2.379413503719641,0.840744014899325,4
3732,-3.447591161224363,0.8807719891534643,-0.2207290545575087,-0.0995210419294658,3.089796830727648,0.9848386886252246,4
3743,-3.377831193689715,0.9117979894605596,-0.2427575437325171,-0.0665968018647804,3.280387563744683,0.9867346670869088,4
3754,-3.2588522402774163,0.9180031895219788,-0.2620322367951109,-0.0442331784340176,3.3282900384251213,0.9507109831235384,4
3766,-2.94416249640986,0.9647506115029808,-0.1647414660194402,-0.0318089409329413,3.284464360152363,0.903311397326273,4
3777,-2.762789120662948,1.0292867255224252,-0.0562080641527441,-0.0137938001186585,3.2121010402314445,0.8710797013500616,4
3788,-2.647299276808769,1.015222509107958,0.0355751143980972,0.0296910362240767,3.1703137768611263,0.8729756798117457,4
3799,-2.6224977082300285,0.9399298112573042,0.0933991935858783,0.098024337391028,3.186620995889045,0.9071033542496412,4
3811,-2.641098884664084,0.886150281069069,0.1186401316046524,0.1700849413599052,3.2579651167080432,0.9279591794557476,4
3822,-2.6438133420546146,0.8485022376598368,0.1200160897987054,0.2669939796191893,3.402691756549879,0.7895524721786912,4
3833,-2.5775424840780867,0.7579049611759944,0.1264409874862365,0.2787970067719022,3.3741541149017205,0.6890653030715265,4
3845,-2.433761962087047,0.6333841169068952,0.1544357216174253,0.2676151899675527,3.2905795714624824,0.6435617267997356,4
3856,-2.0869051044407145,0.4612855535431693,0.229927329583763,0.2371758116521934,3.1927362071991654,0.649249662184788,4
3867,-1.9187071651507637,0.4691479588640279,0.2765068979562102,0.2042515715875081,3.089796830727648,0.6738974443142628,4
3879,-1.7741519909921333,0.5365782513938231,0.3297425701061728,0.1924485444347951,2.973607832533971,0.713713116264792,4
3890,-1.6702882792597344,0.6457945170297333,0.3907772184134109,0.2172970296148841,2.834996404002255,0.7819685272681641,4
3901,-1.589292680491067,0.726878960868899,0.4559435007514253,0.2763121552005124,2.690270014639432,0.876767636735114,4
3912,-1.5028681669413388,0.7703153612988325,0.498851967548756,0.45956966597484,2.5129289200431564,1.0739498937709129,4
3924,-1.3873783230871597,0.7678346368613891,0.5057355179676382,0.5508878212767903,2.475218453080517,1.0777418817580715,4
3935,-1.2308065159189887,0.6623428468494545,0.4827897233299278,0.604312043549212,2.42629677929816,0.9905266240102768,4
3946,-1.070748773996663,0.4811449049139588,0.4499772557952451,0.5869181130832924,2.350875845372881,0.8350560484504821,4
3958,-0.8777492661279712,0.0968257882754526,0.4878386628234061,0.480690868708876,2.265262903729804,0.6625215424803674,4
3969,-0.8312447376408496,0.0484211610350112,0.5360253954798906,0.308615174738898,2.2092068195354058,0.5392826318329932,4
3980,-0.7731109022279824,0.1183355669700603,0.5679205575518713,0.1328122085008035,2.18168824340036,0.4805071752656229,4
3991,-0.7134309372839007,0.2395487786559016,0.5757214134334555,0.0098122541867673,2.143977776437721,0.4615473285212004,4
4003,-0.6626594722671035,0.3996470070018859,0.5621836389613665,-0.0057180452340621,1.918734190462407,0.4312116110066732,4
4014,-0.6099545516352969,0.5229274890522634,0.536713374576917,0.0731758725668119,1.7454699089724124,0.3572682646182487,4
4025,-0.554147847529165,0.4774204292899832,0.5252395373959075,0.1408879633853999,1.5844360334040566,0.2738449948576129,4
4036,-0.5119039059637882,0.3210466765679744,0.5447435568241766,0.153933421412776,1.4896502831450995,0.2454052558047698,4
4048,-0.5359308223749389,0.1911475403832708,0.653508164780857,0.1241152432678437,1.4794582587286995,0.2738449948576129,4
4059,-0.5405819101844442,0.2209331784716444,0.6941214881971239,0.0955394959975746,1.5395911560293778,0.2776369517809811,4
4070,-0.5235300380855686,0.2370646652506475,0.6810423664563858,0.1011303993107812,1.6282617116768157,0.2302373970475062,4
4081,-0.4774128356822422,0.2184490650663903,0.6454761028092884,0.13467584972383,1.6832985967692935,0.2055896149180313,4
4093,-0.3995158455839345,0.2167952487747615,0.6034849414746598,0.1564182729841658,1.677183385459174,0.1942137130841359,4
4104,-0.28014956608784,0.2312729192621357,0.5536929242584471,0.1483425180995694,1.5192071238951783,-0.0257203476194535,4
4115,-0.1844260517230668,0.1940417188936213,0.5289125186953328,0.1234940329194804,1.388749304877422,-0.0977676844824033,4
4127,-0.13559439192921,0.1481212050584339,0.540613802517709,0.0924334340778215,1.2542148063421923,-0.0920797490973509,4
4138,-0.0782352086839326,0.1783202972197147,0.6156467577526957,0.0781455655316551,1.1074497015021134,-0.0370962494533488,4
4149,-0.0766859043487527,0.2147279784102254,0.6337748189869122,0.0905698030327314,0.9413198137255576,0.0292631830883391,4
4160,-0.0774605565163427,0.2374781193235547,0.6202370445148232,0.1234940329194804,0.7670363331336431,0.0558069436794981,4
4172,-0.0980015381733386,0.2287921948246923,0.5855880863304278,0.166978879440152,0.6029449103553303,0.0235752166394961,4
4183,-0.1336545867062696,0.1721150971582957,0.5461213947425383,0.1974182475775748,0.4602566520187333,-0.073119933416719,4
4194,-0.1646597222336609,0.0906171992462228,0.5151435381332596,0.1849940202544349,0.3053380044590982,-0.3594134266619966,4
4205,-0.172022092629731,0.0049847606050777,0.4917390907641983,0.1620091864753088,0.307376402662938,-0.4447326127567353,4
4217,-0.1332672606224746,-0.0376247316790411,0.4795772744861623,0.1551758522874391,0.350182898532378,-0.4200848306272605,4
4228,-0.0573100757471073,0.0190489770195447,0.4738422356199662,0.1912061237380684,0.4042005511257346,-0.3006379390308357,4
4239,0.1229013217484192,0.1336435345710596,0.4474546657728148,0.2676151899675527,0.4276421972642942,-0.1413753133563006,4
4251,0.1856862449707917,0.1208196803753143,0.4616804193419302,0.3434030662045462,0.390950929403575,-0.0010725654899786,4
4262,0.233740077793093,0.1055117127743149,0.4687932961264878,0.3850242715021914,0.3297988496995778,0.0861426611940253,4
4273,0.2709456054651695,0.0633156745631033,0.4577799914011381,0.3800545683594118,0.2869923705287386,0.0956225845662366,4
4284,0.2872228253964551,0.023600360789335,0.4580093177668135,0.3297364080067433,0.2635507243901789,0.0368470969350756,4
4296,0.2953598479601152,0.0244272689351493,0.4713177658732271,0.1663576690917886,0.2584547288805797,-0.1432712918179847,4
4307,0.3174501339522909,0.013257231031033,0.468334643395137,0.0588879938427091,0.2411282940521399,-0.245654408323043,4
4318,0.3531063572891876,-0.0045314610074097,0.4596146023265419,-0.0591422675064837,0.1758993845432618,-0.3385576014558901,4
4329,0.3678342728852933,0.1038578964826861,0.506196050423298,-0.1405210267008112,0.0821328333862247,-0.3897491441765239,4
4341,0.3209392435104112,0.1290921508012696,0.5234049264705034,-0.1541876848986142,-0.0095953028683718,-0.3954371106253668,4
4352,0.2507919498919686,0.0935147667243841,0.5408431288833846,-0.1231270860569552,-0.08501623679365,-0.3726853069575761,4
4363,0.1891721797249465,0.0405621446819632,0.5649374350737812,-0.0883392251251162,-0.1298610974697281,-0.3290776780836788,4
4374,0.1632054580908554,-0.0008069853834339,0.5871933708901562,-0.0709452946591967,-0.1278226992658884,-0.2684062119908337,4
4386,0.1601068494204957,-0.0281118990343643,0.6057800848557235,-0.0895816458218429,-0.0513825829372911,-0.1299994115224052,4
4397,0.1732822858774559,-0.00287425574797,0.6223009818059027,-0.0957937696613493,-0.0116337177708123,-0.0503681297489283,4
4408,0.1880102014735616,0.0500783662944508,0.6383632260247306,-0.083369532160273,0.0270959482937466,0.0330551400117074,3
4419,0.1911119849478869,0.0844119991848039,0.6555721020719365,-0.0603846882032104,0.0556335899419055,0.0975185630279207,3
4431,0.2329654256255031,0.1228869507398504,0.6613090206624409,-0.0405059061659011,0.0586912039462658,0.1335422469912909,3
4442,0.2546683855338839,0.150605318463688,0.6585552245500266,-0.0293240893615515,0.0199615378817069,0.1468141272868704,3
4453,0.2519571029473191,0.1820447728436905,0.6638334904091803,-0.0187634930835017,-0.0554593793449705,0.1581900291207657,3
4464,0.2186248361131924,0.2002469189550403,0.6613090206624409,0.0023577096505343,-0.1400531218861281,0.1847337897119247,3
4476,0.1690216989557111,0.2188625191392976,0.6385925523904062,0.0383880014570364,-0.212416441807046,0.2245494305986632,3
4487,0.1120498417942287,0.2093496864946208,0.6151881050213449,0.142130394260063,-0.277645368014525,0.2947008200637195,3
4498,0.0318288951931512,0.1233004048127577,0.6110583507148774,0.1576606936808925,-0.2429924983576455,0.3041807123721401,3
4509,-0.0561449226917569,-0.0165284070573405,0.6184005538651105,0.1073425231502876,-0.1512643287058472,0.2776369517809811,3
4521,-0.1487698283861703,-0.0880966292840187,0.6539668175122078,0.0154031574999739,-0.0269217376968116,0.2359253324325585,3
4532,-0.1456712197158105,-0.0161149529844334,0.6640628167748557,-0.0678392327394435,0.0831520491867453,0.1961096915458201,3
4543,-0.1185425198303345,0.0351838527663585,0.663374837677829,-0.1237482964053186,0.1351313202748631,0.1695659309546611,3
4554,-0.0918011460286534,0.091447496359848,0.6532788384151816,-0.1579149571667307,0.1137280890387439,0.1600860075824499,3
4566,-0.0743619478459829,0.1452270265480834,0.6287258794934338,-0.1653695017029638,0.0393263709139863,0.1714619094163452,3
4577,-0.080562339990668,0.1584643348167358,0.5929302894806611,-0.0752937772756766,-0.1115154802379693,0.2454052558047698,3
4588,-0.1158280624398041,0.1435698212886438,0.574574781605078,-0.0144150104670218,-0.1257842843634479,0.2890128536148765,3
4599,-0.1634977439822759,0.0988930586399887,0.59247163674931,0.0209940709911169,-0.08501623679365,0.3193486021931943,3
4611,-0.1933377264543168,0.0492480691808255,0.617712574768084,0.03031224657244,-0.0126529168727321,0.3345164609504579,3
4622,-0.1875246603934267,0.0293921067778468,0.6213836763432007,0.022857702036207,0.0525759926361459,0.3402043963355103,3
4633,-0.190239117783957,0.0289786527049396,0.6223009818059027,0.0054637715702874,0.0923248578026248,0.3383084178738261,3
4644,-0.1863626821420417,0.0376645772038019,0.6174832484024085,-0.0150362208153852,0.1116896908349042,0.3307245040270897,3
4655,-0.1677615057079862,0.0595911989391275,0.6071579227740852,-0.0361574235494212,0.1086320768305439,0.3079727003592989,3
4667,-0.1499318066375552,0.1013737830774321,0.5984378817054904,-0.0547937848900039,0.0780560369785453,0.2833249182298241,3
4678,-0.1491571544699653,0.136124259008503,0.5959134119587512,-0.0634907501229636,-0.0289601525992521,0.2738449948576129,3
4689,-0.1662090265688408,0.1481212050584339,0.6023383096462823,-0.0492028713988609,-0.0625937897570102,0.2852208966915082,3
4700,-0.1832608986677164,0.1534994969740385,0.6094511864308401,-0.0249756067450716,-0.0605553915531705,0.2984927769870877,3
4711,-0.1917884221191369,0.1501918643907808,0.617712574768084,-0.0019907729659455,-0.0269217376968116,0.3060767218976148,3
4723,-0.2003159455705575,0.0997199667858032,0.6346921244496141,0.009191043838404,0.0250575500899069,0.3174526237315102,3
4734,-0.189851791700162,0.0910340422869407,0.6218423290745517,-0.0007483522692188,0.0739792238722651,0.3212445806548785,3
4745,-0.1685361578755762,0.1104765506170123,0.6083045546024627,-0.0268392479680981,0.0923248578026248,0.3098686788209831,3
4756,-0.1491571544699653,0.1493615672771557,0.5975205762427883,-0.0547937848900039,0.0790752360804652,0.2890128536148765,3
4767,-0.1379183484319799,0.1783202972197147,0.5828342902180133,-0.0728089257042867,0.0484991795298657,0.2738449948576129,3
4779,-0.1332672606224746,0.1944551729665286,0.5686085366488978,-0.0746725669273132,-0.0381329445165307,0.275740973319297,3
4790,-0.1336545867062696,0.2068655730893667,0.5571346994678882,-0.0616271190778736,-0.0789010254835302,0.2833249182298241,3
4801,-0.1495444805537602,0.1907306973425529,0.5442849040928256,-0.0529301436669774,-0.1023426716220898,0.2852208966915082,3
4812,-0.1840387256392718,0.1683940105021308,0.54107245524906,-0.0479604507021342,-0.0992850576177295,0.2833249182298241,3
4823,-0.2324798845453681,0.1762530268551786,0.5731969436867164,-0.0398846958175378,-0.0676898019652103,0.2738449948576129,3
4835,-0.2479824523090638,0.1667368052426911,0.5883418824428425,-0.0280816686648248,-0.0157105141784917,0.2605731145620334,3
4846,-0.254182844453749,0.1551533132656673,0.5881125560771668,-0.0212483446548915,0.041364769117826,0.2510931911898222,3
4857,-0.253408192286159,0.1510187725365951,0.5823756374866622,-0.0293240893615515,0.080094435182385,0.2378213108942426,3
4868,-0.2487571044766537,0.1617753563678044,0.5816876583896358,-0.0479604507021342,0.0913056587007049,0.2207574736752949,3
4879,-0.2386802766900533,0.1770799350009931,0.5819169847553112,-0.0516877229702507,0.0749984229741849,0.2036936053925566,3
4891,-0.225892166316888,0.1832851350624121,0.5752627607021045,-0.0255968272713714,0.0535951917380658,0.2169655167519267,3
4902,-0.2138787081113127,0.1762530268551786,0.5626422916927175,0.0073274127933139,0.0199615378817069,0.2359253324325585,3
4913,-0.2243428619817081,0.1547398591927603,0.5578226785649146,0.0352819497152196,-0.0126529168727321,0.2529891696515062,3
4924,-0.2441060166671485,0.1452270265480834,0.5672306987305361,0.0564031422713193,-0.0228449412891322,0.2662610499470857,3
4935,-0.2576719540118693,0.128265242655455,0.5729676173210407,0.0682061796019686,-0.0004224942524924,0.2681570594725605,3
4947,-0.2572846279280743,0.1253676751772938,0.5773266979931839,0.0682061796019686,0.0423839682197459,0.2605731145620334,3
4958,-0.2406200819129937,0.1377780753001319,0.5823756374866622,0.0588879938427091,0.085190447390585,0.2416132988814015,3
4969,-0.2103895985531924,0.1444001184022689,0.5798511677399231,0.0458425459932695,0.1086320768305439,0.2188614952136108,3
4980,-0.1828735725839214,0.1452270265480834,0.5695258421115996,0.0191304297680904,0.0933440569045446,0.2074855933797154,3
4991,-0.1665963526526358,0.1572239725980143,0.5612644537743557,0.0073274127933139,0.0719408256684254,0.2036936053925566,3
5003,-0.1592339822565657,0.160531605181272,0.5525462924300696,-0.0050968348856987,0.0495183786317856,0.1942137130841359,3
5014,-0.1538082422794705,0.1828716809895049,0.5429089458987727,-0.0144150104670218,0.0281151473956664,0.1790458543268724,3
5025,-0.1638850700660709,0.1994200108092259,0.5518583133330431,-0.0131725897702951,0.0128271274696671,0.1657739429675022,3
5036,-0.1793876378297666,0.1923879026019924,0.56149565986434,-0.0019907729659455,0.0087503143633869,0.1525020626719228,3
5047,-0.1855880299744517,0.1667368052426911,0.565854740536483,0.0104334645351307,0.018942338779787,0.135438225452975,3
5059,-0.1848133778068618,0.1402621887053861,0.5702138212086262,0.0197516502943902,0.041364769117826,0.1259583020807638,3
5070,-0.1840387256392718,0.1270248804367334,0.5849001072334014,0.0253425536075968,0.0678640125621452,0.1278542805424479,3
5081,-0.1871373343096317,0.1233004048127577,0.6027969623776334,0.022857702036207,0.080094435182385,0.1449181488251862,3
5092,-0.1886866386448116,0.0984796045670815,0.6085338809681382,0.0060849819186508,0.0566528057424261,0.1468141272868704,3
5103,-0.1956648577610522,0.0641425827089178,0.6096805127965157,-0.0150362208153852,0.0219999360855465,0.1581900291207657,3
5115,-0.2286066237074184,0.0819312747473605,0.6133516143716322,-0.0262180376197348,-0.0106145186688925,0.188525746635293,3
5126,-0.2441060166671485,0.0864826585171506,0.6128929616402812,-0.0274604583164615,-0.0350753472107712,0.2245494305986632,3
5137,-0.2588339322632542,0.0873095666629651,0.6115170034462282,-0.0262180376197348,-0.0432289567247307,0.2435092773430857,3
5148,-0.254182844453749,0.0918609504327552,0.6030262887433088,-0.0237331860483449,-0.0177489290809322,0.2359253324325585,3
5159,-0.2348070158521036,0.0902037451733156,0.5986672080711658,-0.0168998518604752,0.0393263709139863,0.2188614952136108,3
5171,-0.216980491585638,0.0935147667243841,0.6014210041835805,0.0023577096505343,0.1595921655153426,0.222653452136979,3
5182,-0.1999254446827969,0.1063386209201295,0.6002724926308942,0.0029789199988976,0.1830338116539023,0.2340293539708744,3
5193,-0.1801622899973566,0.1224734966669433,0.5871933708901562,-0.0069604659307888,0.1708033890336626,0.2340293539708744,3
5204,-0.1603959605079506,0.1237138588856649,0.570672473939977,-0.0212483446548915,0.1330929220710234,0.2302373970475062,3
5215,-0.1503191327213502,0.1481212050584339,0.5731969436867164,-0.0255968272713714,0.0862096464925049,0.2359253324325585,3
5227,-0.1634977439822759,0.164669534878155,0.5761800661648065,-0.0156574311637485,0.0464607813260261,0.2529891696515062,3
5238,-0.1790003117459716,0.1642560808052477,0.5713623327613123,-0.0007483522692188,0.0169039405759473,0.2700530379342446,3
5249,-0.1863626821420417,0.1626022645136189,0.567689351461887,0.0017364993021709,-0.0034800915582519,0.2643650714854016,3
5260,-0.191013769951547,0.1712881890124812,0.5644769026181213,-0.0082028866275155,-0.0208065263866917,0.2416132988814015,3
5271,-0.1979888142638221,0.1688074645750378,0.5539222506241225,-0.0050968348856987,-0.0462865707290911,0.2188614952136108,3
5283,-0.2069036637990376,0.1390218264866643,0.5458920683768629,0.0054637715702874,-0.0452673716271712,0.2264454090603473,3
5294,-0.2154280124464926,0.0984796045670815,0.5502511490490058,0.009191043838404,-0.0228449412891322,0.2378213108942426,3
5305,-0.216980491585638,0.0674536042599863,0.5589711901176009,0.0042213508735607,0.0148655256735068,0.2454052558047698,3
5316,-0.1976014881800271,0.0595911989391275,0.5713623327613123,-0.011930158895632,0.0464607813260261,0.2454052558047698,3
5328,-0.190239117783957,0.1026141452961537,0.5757214134334555,-0.0367786338977846,0.0566528057424261,0.2321333755091903,3
5339,-0.1871373343096317,0.1406756427782931,0.5791631886428966,-0.0597634778548471,0.0372879727101467,0.2074855933797154,3
5350,-0.1944997047057018,0.1572239725980143,0.5869640445244808,-0.0728089257042867,0.0036543188537877,0.1809418327885565,3
5361,-0.2076783159666275,0.1634291726594332,0.5961427383244267,-0.0740513464010134,-0.0208065263866917,0.1581900291207657,3
5373,-0.2189171220046129,0.1704612808666669,0.5975205762427883,-0.0411271165142645,-0.0167297132804115,0.1581900291207657,3
5384,-0.2328672106291631,0.1721150971582957,0.5906351460995973,-0.0150362208153852,-0.0014416933544122,0.1752538663397135,3
5395,-0.2394581036616088,0.1741857564906425,0.5844414545020503,0.0104334645351307,0.018942338779787,0.1923177346224518,3
5406,-0.2320925584615732,0.1733588483448281,0.5800804941055985,0.0272061948306232,0.0454415822241062,0.1923177346224518,3
5417,-0.2065163377152426,0.1319863293116202,0.5656254141708076,0.0284486155273499,0.0729600247703453,0.1809418327885565,3
5429,-0.1925630742867269,0.138608372413757,0.5605764746773293,0.0129183161065205,0.0882480446963445,0.1638779645058181,3
5440,-0.1828735725839214,0.1683940105021308,0.5543809033554734,-0.0125513692439954,0.0841712482886652,0.141126191901818,3
5451,-0.1747365500202613,0.1832851350624121,0.5474973529365913,-0.0330513616296681,0.0597104030481857,0.1145824002468684,3
5462,-0.1782256595783817,0.175012664636457,0.5445142304585012,-0.0367786338977846,0.0240383509879871,0.0994145414896048,3
5473,-0.1925630742867269,0.150605318463688,0.5472680265709157,-0.0187634930835017,-0.0330369490069315,0.0937265750407618,3
5485,-0.2088402942180125,0.1187490210429676,0.5548414358111333,-0.0150362208153852,-0.0401713594189712,0.0937265750407618,3
5496,-0.2220157306749727,0.0947551289431059,0.5631009444240684,-0.0131725897702951,-0.0350753472107712,0.1051025079384478,3
5507,-0.2390707775778138,0.0959954911618275,0.567689351461887,-0.0106877381989053,-0.0269217376968116,0.1259583020807638,3
5518,-0.2506969096995942,0.1100630965441052,0.5761800661648065,-0.0044756143593989,-0.0228449412891322,0.1525020626719228,3
5529,-0.2565099757604844,0.117922112897153,0.5888005351741935,0.0048425612219241,-0.0208065263866917,0.1714619094163452,3
5541,-0.254182844453749,0.1038578964826861,0.5977499026084637,0.0129183161065205,-0.0157105141784917,0.1828378112502406,3
5552,-0.2503095836157992,0.0951685830160129,0.6000431662652186,0.0135395264548838,-0.0044993073587726,0.1904217250969771,3
5563,-0.2441060166671485,0.1030309883368718,0.5945374537646982,0.0042213508735607,0.0087503143633869,0.1942137130841359,3
5574,-0.2363563201872834,0.125781129250201,0.5871933708901562,-0.0268392479680981,0.018942338779787,0.1733578878780294,3
5585,-0.2317052323777782,0.154326405119853,0.5869640445244808,-0.0318089409329413,0.0219999360855465,0.1600860075824499,3
5597,-0.2317052323777782,0.1659098970968766,0.5901764933682463,-0.0268392479680981,0.0311727614000268,0.1543980411336069,3
5608,-0.2336450376007186,0.1468808428397123,0.5956840855930756,-0.0162786415121119,0.0393263709139863,0.1543980411336069,3
5619,-0.2410074079967887,0.136124259008503,0.6027969623776334,-0.0057180452340621,0.0423839682197459,0.1600860075824499,3
5630,-0.2518588879509791,0.1348838967897814,0.6053214321243725,0.0067061922670141,0.0434031840202665,0.1752538663397135,3
5642,-0.2596085844308442,0.1220600425940361,0.5991258608025168,0.0178880090713637,0.0454415822241062,0.1904217250969771,3
5653,-0.2619357157375795,0.0968257882754526,0.5922423103836345,0.0191304297680904,0.0495183786317856,0.1942137130841359,3
5664,-0.2599959105146391,0.0765529828317559,0.5963720646901021,-0.0069604659307888,0.0648064152563857,0.1904217250969771,3
5675,-0.2561226496766894,0.085242296298429,0.6062387375870745,-0.0193847034318651,0.080094435182385,0.1999016484691883,3
5686,-0.2503095836157992,0.1038578964826861,0.6076165755054362,-0.0268392479680981,0.0902864429001843,0.2093815718413995,3
5698,-0.244883843638704,0.1100630965441052,0.6073872491397608,-0.0299453098878513,0.0913056587007049,0.2150695072264519,3
5709,-0.2231808837303232,0.1191624751158748,0.5931596158463365,-0.0305665202362146,0.0872288455944247,0.2131735287647678,3
5720,-0.2115547516085428,0.127851788582548,0.5754920870677799,-0.0287028790131882,0.0739792238722651,0.2188614952136108,3
5731,-0.2080656420504225,0.1336435345710596,0.566313393267834,-0.0218695550032549,0.0535951917380658,0.2378213108942426,3
5742,-0.2084529681342175,0.1183355669700603,0.5665427196335097,-0.0069604659307888,0.0393263709139863,0.2605731145620334,3
5754,-0.2123294037761328,0.0831716369660821,0.5697551684772751,0.009191043838404,0.0403455700159062,0.2833249182298241,3
5765,-0.2189171220046129,0.0471807988162894,0.571591659126988,0.0060849819186508,0.0760176220761048,0.3231405591165626,3
5776,-0.2305432541263933,0.0223599985706132,0.5741142491494182,-0.0181422827351383,0.0913056587007049,0.3326204824887738,3
5787,-0.245271169722499,0.03187283121529,0.5826049638523376,-0.0485816610504975,0.0933440569045446,0.3326204824887738,3
5799,-0.2495317566442437,0.0815178206744532,0.5975205762427883,-0.0672180223910802,0.0831520491867453,0.3288285255654056,3
5810,-0.2390707775778138,0.1874230647592951,0.5984378817054904,-0.0659756016943534,0.0597104030481857,0.3288285255654056,3
5821,-0.2359689941034884,0.2143111353695074,0.5888005351741935,-0.0454755991307443,0.0270959482937466,0.3345164609504579,3
5832,-0.2359689941034884,0.2047983027248306,0.583751595680715,-0.0125513692439954,-0.0004224942524924,0.3458923627843533,3
5843,-0.2336450376007186,0.1770799350009931,0.5773266979931839,0.0209940709911169,-0.0085761037664519,0.3553722861565646,3
5854,-0.2309305802101883,0.1563970644521997,0.5720503118583389,0.0464637563416328,0.0016159039513472,0.3629562310670916,3
5866,-0.2301559280425983,0.1336435345710596,0.5736555964180672,0.0477061770383595,0.0484991795298657,0.3439963843226692,3
5877,-0.2278287967358629,0.1125438209815484,0.5775560243588593,0.0160243780262737,0.0811136342843048,0.3079727003592989,3
5888,-0.216980491585638,0.1113034587628268,0.5787045359115457,-0.0262180376197348,0.1055744795247844,0.2643650714854016,3
5899,-0.1968268360124371,0.1228869507398504,0.5777872304488436,-0.0622483294262369,0.1106704917329844,0.2264454090603473,3
5910,-0.1611706126755406,0.1675671023563162,0.5784752095458701,-0.0821271012856099,0.0953824551083843,0.2055896149180313,3
5922,-0.1584593300889758,0.1923879026019924,0.5748041079707534,-0.0802634702405198,0.0668448134602254,0.1999016484691883,3
5933,-0.1646597222336609,0.1969392863717826,0.576409392530482,-0.0572786364613937,0.0393263709139863,0.2131735287647678,3
5944,-0.1805496160811515,0.1754261187093642,0.5867347181588052,-0.0206271241285918,0.0240383509879871,0.2378213108942426,3
5955,-0.1976014881800271,0.136124259008503,0.58948851427122,0.0154031574999739,0.0311727614000268,0.2681570594725605,3
5966,-0.2045765324923022,0.107165529065944,0.5851294335990768,0.0290698258757133,0.0770368378766255,0.3022847339104559,3
5978,-0.2034145542409172,0.0959954911618275,0.5816876583896358,0.0073274127933139,0.0902864429001843,0.2965967985254036,3
5989,-0.1976014881800271,0.1084058912846656,0.5787045359115457,-0.0181422827351383,0.0913056587007049,0.28142893976814,3
6000,-0.1890739647286066,0.1448135724751762,0.5782458831801947,-0.0361574235494212,0.0790752360804652,0.2700530379342446,3
6011,-0.1937250525381118,0.1865961566134807,0.5796218413742474,-0.0405059061659011,0.0627680003539452,0.2719490163959288,3
6022,-0.199538118599002,0.184938951354041,0.5761800661648065,-0.0299453098878513,0.0474799804279459,0.2852208966915082,3
6034,-0.2057385107436871,0.1737723024177352,0.5725089645896897,-0.0106877381989053,0.0372879727101467,0.3041807123721401,3
6045,-0.2111642507207823,0.1584643348167358,0.5679205575518713,0.0079486231416772,0.0342303587057863,0.3250365375782467,3
6056,-0.2111642507207823,0.1427429131428292,0.56149565986434,0.0178880090713637,0.0372879727101467,0.3383084178738261,3
6067,-0.2127167298599278,0.1328166264252453,0.5578226785649146,0.0023577096505343,0.0403455700159062,0.3364124394121421,3
6078,-0.2216284045911778,0.1365377130814103,0.5635595971554195,-0.011930158895632,0.0454415822241062,0.3212445806548785,3
6090,-0.225504840233093,0.1617753563678044,0.5718209854926634,-0.0206271241285918,0.0597104030481857,0.2965967985254036,3
6101,-0.2146533602789026,0.1956955351852503,0.574574781605078,-0.0231119756999816,0.0749984229741849,0.2738449948576129,3
6112,-0.1890739647286066,0.2482347031547639,0.5849001072334014,-0.0218695550032549,0.0760176220761048,0.2529891696515062,3
6123,-0.1770605065230312,0.2519591787787397,0.5858174126961033,-0.017521072386775,0.0586912039462658,0.2378213108942426,3
6145,-0.1828735725839214,0.2391353245829943,0.5731969436867164,-0.0032331936626722,0.0005967048494274,0.2169655167519267,3
6156,-0.1948902055934623,0.2122438650049713,0.5670013723648605,0.0042213508735607,-0.0167297132804115,0.2093815718413995,3
6167,-0.2134913820275177,0.1799775024791544,0.5699844948429506,0.0104334645351307,-0.0044993073587726,0.2017976269308724,3
6179,-0.2309305802101883,0.160531605181272,0.5761800661648065,0.0079486231416772,0.0158847247754266,0.1904217250969771,3
6190,-0.2413947340805837,0.1477077509855268,0.5826049638523376,-0.0007483522692188,0.0291343464975863,0.167669952492977,3
6201,-0.2479824523090638,0.1497784103178735,0.5931596158463365,-0.0088240969758788,0.0342303587057863,0.1449181488251862,3
6212,-0.253408192286159,0.1369511671543175,0.5959134119587512,-0.0125513692439954,0.0352495578077061,0.1316462685296068,3
6223,-0.2518588879509791,0.125781129250201,0.5952254328617246,-0.0131725897702951,0.0332111596038665,0.1278542805424479,3
6235,-0.2464331479738839,0.117508658824246,0.5959134119587512,-0.0082028866275155,0.0332111596038665,0.1373342039146591,3
6246,-0.2417820601643786,0.1013737830774321,0.5970600437871286,0.0054637715702874,0.0342303587057863,0.1600860075824499,3
6257,-0.2402327558291987,0.0815178206744532,0.5993551871681921,0.0203728606427535,0.0321919605019466,0.1847337897119247,3
6268,-0.2429440384157636,0.0798640043828244,0.6048627793930215,0.0290698258757133,0.0291343464975863,0.2036936053925566,3
6279,-0.2406200819129937,0.0897902911004083,0.608992533699489,0.0241001329108701,0.0403455700159062,0.2017976269308724,3
6291,-0.2309305802101883,0.0997199667858032,0.6069267166841009,0.016645588374637,0.0586912039462658,0.2017976269308724,3
6302,-0.2216284045911778,0.1199893832616891,0.6046334530273461,0.011054674883494,0.0790752360804652,0.2055896149180313,3
6313,-0.1937250525381118,0.1526725888282241,0.6002724926308942,0.0116758852318574,0.0984400691127446,0.2093815718413995,3
6324,-0.1820989204163314,0.146467388766805,0.5881125560771668,0.0154031574999739,0.1157665039411844,0.2112775503030837,3
6335,-0.1755112021878513,0.1435698212886438,0.5748041079707534,0.0178880090713637,0.1249393125570638,0.2112775503030837,3
6347,-0.1762858543554412,0.1431563672157365,0.567689351461887,0.0191304297680904,0.1229009143532242,0.2112775503030837,3
6358,-0.1782256595783817,0.138608372413757,0.5702138212086262,0.0172667987230004,0.1137280890387439,0.2036936053925566,3
6369,-0.1762858543554412,0.1394352805595715,0.5766387188961573,0.0116758852318574,0.0892672437982644,0.1847337897119247,3
6380,-0.1735745717688764,0.1452270265480834,0.5770973716275083,0.011054674883494,0.0749984229741849,0.1809418327885565,3
6392,-0.171634766545936,0.1472942969126195,0.5720503118583389,0.0147819471516105,0.0607296021501055,0.1866297681736088,3
6403,-0.1774478326068262,0.150605318463688,0.5692965157459242,0.0241001329108701,0.0556335899419055,0.1999016484691883,3
6414,-0.1914010960353419,0.1928013566748997,0.5709018003056526,0.0414940633767896,0.0617488012520253,0.2112775503030837,3
6425,-0.190239117783957,0.1745992105635497,0.5734262700523918,0.0595092041910725,0.0739792238722651,0.2188614952136108,3
6436,-0.1848133778068618,0.1390218264866643,0.5727382909553653,0.0663425383789422,0.085190447390585,0.2169655167519267,3
6448,-0.1755112021878513,0.1228869507398504,0.5725089645896897,0.0588879938427091,0.0943632560064644,0.2036936053925566,3
6459,-0.170860114378346,0.1137841832002702,0.571591659126988,0.0408728530284262,0.0953824551083843,0.1847337897119247,3
6470,-0.1681488317917812,0.1067520749930367,0.5683792102832221,-0.0019907729659455,0.0688832116640651,0.1562940506590816,3
6481,-0.1689234839593712,0.1030309883368718,0.567689351461887,-0.0162786415121119,0.0556335899419055,0.1525020626719228,3
6492,-0.1793876378297666,0.1009603290045248,0.5702138212086262,-0.0181422827351383,0.0546143908399856,0.1543980411336069,3
6504,-0.1944997047057018,0.1022006912232464,0.5757214134334555,-0.0094453175021786,0.0627680003539452,0.1638779645058181,3
6515,-0.2158153385302876,0.0955820370889202,0.5917836576522837,0.0067061922670141,0.0709216265665056,0.1847337897119247,3
6526,-0.2247301880655031,0.0815178206744532,0.5952254328617246,0.0191304297680904,0.0770368378766255,0.2055896149180313,3
6537,-0.2286066237074184,0.070761236843244,0.5959134119587512,0.0209940709911169,0.080094435182385,0.2150695072264519,3
6548,-0.2193044480884079,0.0637291286360105,0.5885712088085179,0.011054674883494,0.085190447390585,0.2055896149180313,3
6560,-0.2030272281571223,0.0711746909161513,0.5766387188961573,-0.0069604659307888,0.0923248578026248,0.1866297681736088,3
6571,-0.1894644656163671,0.0897902911004083,0.5651667614394567,-0.0336725821559678,0.0892672437982644,0.1790458543268724,3
6582,-0.1813242682487415,0.107165529065944,0.5569053731022126,-0.0330513616296681,0.0699024107659849,0.2036936053925566,3
6593,-0.1774478326068262,0.1224734966669433,0.552775618795745,-0.0200059137802284,0.0423839682197459,0.2454052558047698,3
6604,-0.1774478326068262,0.1290921508012696,0.5477266793022667,-0.0013695626175822,0.0158847247754266,0.2852208966915082,3
6616,-0.198763466431412,0.0931013126514768,0.5422209668017464,0.0098122541867673,-0.0055185064606924,0.3022847339104559,3
6627,-0.2038018803247122,0.0806909125286387,0.5431382722644481,0.0029789199988976,-0.0126529168727321,0.2928048416020353,3
6638,-0.198376140347617,0.0819312747473605,0.5392378443236562,-0.017521072386775,-0.0024608924563321,0.2643650714854016,3
6649,-0.1937250525381118,0.0935147667243841,0.5403844761520336,-0.0398846958175378,0.0169039405759473,0.2302373970475062,3
6660,-0.1933377264543168,0.1133707291273629,0.5523169660643942,-0.0547937848900039,0.0342303587057863,0.2036936053925566,3
6672,-0.1890739647286066,0.13819491834085,0.5603471483116538,-0.0616271190778736,0.0566528057424261,0.1809418327885565,3
6683,-0.1824862465001264,0.1621888104407116,0.5594298428489519,-0.0535513540153407,0.0546143908399856,0.1771498448013976,3
6694,-0.1809369421649465,0.1650829889510623,0.56149565986434,-0.0349150028526945,0.0474799804279459,0.1828378112502406,3
6705,-0.1790003117459716,0.1679805564292235,0.5775560243588593,-0.0057180452340621,0.0423839682197459,0.1980056700075042,3
6717,-0.1755112021878513,0.1518456806824096,0.5798511677399231,0.0253425536075968,0.036268756909626,0.2150695072264519,3
6728,-0.1766731804392362,0.1187490210429676,0.5812290056582847,0.0489486079130226,0.0240383509879871,0.222653452136979,3
6739,-0.1782256595783817,0.0935147667243841,0.5860467390617787,0.0582667834943458,0.0107887292658274,0.2207574736752949,3
6750,-0.1817115943325365,0.0881364748087795,0.59247163674931,0.0539183008778659,0.0067119161595473,0.2131735287647678,3
6761,-0.1859753560582467,0.0951685830160129,0.5952254328617246,0.035903160063583,0.0148655256735068,0.2036936053925566,3
6772,-0.1863626821420417,0.1005468749316176,0.5972912498771129,-0.0113089485472686,0.0586912039462658,0.1657739429675022,3
6784,-0.1882993125610166,0.1022006912232464,0.6032556151089844,-0.0231119756999816,0.0872288455944247,0.1562940506590816,3
6795,-0.1937250525381118,0.1104765506170123,0.6083045546024627,-0.0218695550032549,0.1137280890387439,0.1525020626719228,3
6806,-0.1844260517230668,0.109649642471198,0.5975205762427883,-0.0106877381989053,0.1249393125570638,0.1581900291207657,3
6817,-0.1790003117459716,0.0881364748087795,0.5915543312866081,0.0067061922670141,0.118824101246944,0.1752538663397135,3
6828,-0.1790003117459716,0.0753126206130341,0.5835222693150396,0.0265849743043235,0.0994592682146645,0.1904217250969771,3
6840,-0.1867500082258367,0.0674536042599863,0.5796218413742474,0.0390092118053998,0.0790752360804652,0.1942137130841359,3
6851,-0.1956648577610522,0.0616618582714744,0.5853587599647524,0.0390092118053998,0.0699024107659849,0.1866297681736088,3
6862,-0.1999254446827969,0.0624887664172889,0.5888005351741935,0.0321758877954665,0.0841712482886652,0.1847337897119247,3
6873,-0.2007032716543524,0.0575239285745914,0.5851294335990768,0.0203728606427535,0.146342543793183,0.1999016484691883,3
6885,-0.1960521838448472,0.0496649122215436,0.5809996792926092,0.0135395264548838,0.168764974131222,0.2017976269308724,3
6896,-0.1871373343096317,0.0562835663558698,0.5775560243588593,0.0098122541867673,0.1809954134500626,0.2093815718413995,3
6907,-0.1600086344241556,0.1150279343868026,0.5773266979931839,0.011054674883494,0.1830338116539023,0.2169655167519267,3
6918,-0.14450606666046,0.1357108049355957,0.5897178406368954,0.0178880090713637,0.1769186003437824,0.2245494305986632,3
6929,-0.1270668684777895,0.1390218264866643,0.5975205762427883,0.03031224657244,0.1677457750293022,0.2378213108942426,3
6941,-0.116602714607394,0.1224734966669433,0.5933889422120119,0.0458425459932695,0.1544961533071426,0.249197212728138,3
6952,-0.1177678676627445,0.0988930586399887,0.584670780867726,0.0532970905295025,0.1249393125570638,0.249197212728138,3
6963,-0.1181551937465394,0.0902037451733156,0.5826049638523376,0.0216152813394802,0.0301535622981069,0.2017976269308724,3
6974,-0.1111769746302988,0.0980661504941742,0.5871933708901562,0.0036001405251974,0.0005967048494274,0.1752538663397135,3
6985,-0.108465692043734,0.1162682966055242,0.5917836576522837,-0.0007483522692188,-0.0034800915582519,0.161981986044134,3
6997,-0.1131167798532393,0.1261979722909189,0.5938475949433629,0.0048425612219241,0.0148655256735068,0.161981986044134,3
7008,-0.109240344211324,0.1017872371503393,0.5885712088085179,0.0116758852318574,0.0454415822241062,0.161981986044134,4
7019,-0.0937377764476283,0.1026141452961537,0.584670780867726,0.0122971057581571,0.0699024107659849,0.1543980411336069,4
7030,-0.0739746217621879,0.1121303669086413,0.5904058197339217,0.0029789199988976,0.0699024107659849,0.1373342039146591,4
7042,-0.061957988752647,0.107165529065944,0.5975205762427883,-0.0137938001186585,0.041364769117826,0.1126864217851843,4
7053,-0.0600213583336722,0.0980661504941742,0.6014210041835805,-0.0293240893615515,-0.0055185064606924,0.0975185630279207,4
7064,-0.0650597722269724,0.1113034587628268,0.6076165755054362,-0.0212483446548915,-0.1104962811360494,0.1164783787085525,4
7075,-0.0673837287297422,0.1295056048741768,0.6115170034462282,0.0141607368032472,-0.1512643287058472,0.1373342039146591,4
7086,-0.0611833365850571,0.1253676751772938,0.6124343089089302,0.0601304145394358,-0.1808211861545268,0.1638779645058181,4
7098,-0.0561449226917569,0.1013737830774321,0.6103703716178508,0.1011303993107812,-0.2042628155944856,0.1999016484691883,4
7109,-0.0456807688213615,0.0384948743174271,0.5860467390617787,0.1210091813480906,-0.2358580879456057,0.2378213108942426,4
7120,-0.026692266303511,0.0368376690579874,0.5842121281363749,0.109827364543741,-0.2888565414370425,0.2681570594725605,4
7131,-0.0003382185856249,0.060418107084942,0.584670780867726,0.0800092067546816,-0.3561238658483612,0.2890128536148765,4
7143,0.0248506760769106,0.0881364748087795,0.5800804941055985,0.0539183008778659,-0.4254295717649187,0.3003887554487719,4
7154,0.0453916577339065,0.117922112897153,0.5773266979931839,0.0427364840735163,-0.4998313399854788,0.3041807123721401,4
7165,0.062830855916577,0.1576374266709215,0.5752627607021045,0.0564031422713193,-0.69042198950951,0.2776369517809811,4
7176,0.0837591636573678,0.211830410932064,0.5624129653270421,0.0682061796019686,-0.8280142189393062,0.2302373970475062,4
7188,0.1011983618400383,0.2771934330973231,0.5385498652266297,0.0775243551832918,-1.004336114433661,0.1468141272868704,4
7199,0.1097258852914589,0.3458674768136506,0.5117017629238184,0.0942970753008479,-1.1969653124489394,0.0425350633839186,4
7210,0.0694185741450571,0.309876638663858,0.5208804567237643,0.1203879709997272,-1.3702294770487282,-0.0389922589788236,4
7222,-0.0096403942046355,0.2110035027862496,0.5516289869673676,0.142130394260063,-1.4986488811640442,-0.0825998567889303,4
7233,-0.0875373843029432,0.1104765506170123,0.5982085553398148,0.1564182729841658,-1.5577625793628025,-0.0617440315828237,4
7244,-0.1557448726984454,0.0194624310924519,0.6374459205620289,0.1688425104852421,-1.5434937585387232,0.0311591615500232,4
7255,-0.2204664263397928,-0.0872697211382041,0.6645214695062065,0.1303273671073501,-1.472149637719725,0.2321333755091903,4
7266,-0.2743365000269498,-0.1613186678023257,0.6902210602563317,0.0651001176822155,-1.5078217064785242,0.2302373970475062,4
7278,-0.3103768746436759,-0.1704214353419059,0.7106423851473028,-0.0044756143593989,-1.6066842698437611,0.1487101057485545,4
7289,-0.3344069658587921,-0.1431165216909757,0.7177552619318606,-0.0560362055867306,-1.763641332305837,0.0330551400117074,4
7300,-0.4115293037895098,-0.107125683541183,0.75768248597541,-0.0864755839020897,-1.958308861730552,-0.0617440315828237,4
7311,-0.4960140121162977,-0.1141577917484164,0.79164158533847,-0.1038695245459457,-2.138707687221393,-0.1072476078546145,4
7323,-0.589026243894506,-0.1716617975606277,0.8095403202070108,-0.1150513413502953,-2.24878147410495,-0.0844958352506144,4
7334,-0.6820384756727145,-0.2535731495456076,0.8297323187323066,-0.1330664821645781,-2.25999269762327,0.0330551400117074,4
7345,-0.7773746639536926,-0.2804646091236308,0.8285838071796201,-0.1560513261216406,-2.1570533211517526,0.254885179176981,4
7357,-0.8622498731682411,-0.2382651819446083,0.765024689125643,-0.110081648385452,-1.809505408782436,0.6947532695203695,4
7368,-0.9199932076933478,-0.1741459109658817,0.6541961438778832,-0.0429907577372909,-1.758545320097637,0.747840821766478,4
7379,-0.9610751710073396,-0.1431165216909757,0.5525462924300696,0.0017364993021709,-1.840081465333035,0.7004412049054218,4
7391,-1.1002046051888743,-0.2204764899061655,0.5181266606113497,-0.0026119833143089,-1.9970385277951104,0.6208099231319448,4
7402,-1.178488921370977,-0.1956556896604893,0.522716947373477,-0.0355362132010579,-2.172341341077752,0.5790982727197317,4
7413,-1.261424325362585,-0.1704214353419059,0.5107844574611164,-0.0709452946591967,-2.348663236572107,0.5847862391685748,4
7425,-1.3645133849273938,-0.1989667112115579,0.4894439473831345,-0.1057331657689721,-2.5158123234505827,0.6189139446702608,4
7436,-1.480003228781573,-0.2361979115800722,0.4726937240672799,-0.1473543507107445,-2.6360778675729266,0.6587295855569991,4
7447,-1.6071192047575324,-0.2436434738602129,0.4777426635607582,-0.2616573397918209,-2.5739068225474213,0.7440488648431097,4
7459,-1.7582620971446423,-0.2039315490542552,0.4837089085169385,-0.2939603593302065,-2.364970472298627,0.8160962327698502,4
7470,-1.910182816503308,-0.1464275432420442,0.4541088898260215,-0.2846421837488834,-2.0979396229529943,0.8995194404029047,4
7481,-2.1024076722044103,-0.0943018293454376,0.3561301399533242,-0.2442634093259014,-1.834985453124835,0.994318611997436,4
7493,-2.158214376310542,-0.0727886616830193,0.3056482639157762,-0.1864907146149362,-1.6056650707418416,1.0929097405153354,4
7504,-2.189603663117763,-0.0951287374912521,0.234745062987257,-0.1243695169316183,-1.4303623743494065,1.1952928259566027,4
7515,-2.2194468203937694,-0.1170553592265777,0.1464036596458569,-0.0647331708196903,-1.332519010086089,1.31473984180819,4
7527,-2.2535505645915204,-0.1158149970078561,0.0557689926477016,-0.0057180452340621,-1.3192693883639297,1.4209149152366167,4
7538,-2.3004455939664026,-0.1302926674952303,-0.0197244950429448,0.0781455655316551,-1.4741880359235646,1.3962671331071417,4
7549,-2.3539251667657988,-0.2006205275031867,-0.0589618602651588,0.0694486002986954,-1.5587817784647222,1.276820179383136,4
7560,-2.408182566536751,-0.2974230040484483,-0.0571253696154461,0.0067061922670141,-1.587319436811482,1.1251414364915464,4
7572,-2.4783298601551933,-0.203518094981348,-0.0525369625776275,-0.0827483218119096,-1.5434937585387232,0.9336471459045907,4
7583,-2.472516794094304,-0.0628623749654352,-0.084200918559624,-0.151081622978861,-1.460938414201405,0.6928572910586852,4
7594,-2.461277988056318,0.0240138148622422,-0.1298631814693692,-0.1678543430964172,-1.3824598829703671,0.4312116110066732,4
7606,-2.442673636818297,0.0413890528277777,-0.1771326086631516,-0.1436270784426279,-1.3427110178038884,0.1923177346224518,4
7617,-2.4225231560490617,0.0397352365361488,-0.2257779940509869,-0.1088392276887253,-1.3579990544284886,0.0065113794205484,4
7628,-2.4093445447881354,0.0575239285745914,-0.2808482771263536,-0.0684604430878069,-1.527186539510804,-0.1717110619346184,4
7639,-2.408182566536751,0.1009603290045248,-0.3423415781649426,-0.057899846809757,-1.6607019558343197,-0.1792949757813549,4
7651,-2.4108970239272813,0.1576374266709215,-0.3877745147090123,-0.0417483268626278,-1.8166398191944757,-0.1679190739474595,4
7662,-2.465929075865823,0.2370646652506475,-0.4157692488402011,-0.0125513692439954,-1.973596881656551,-0.1660230954857755,4
7673,-2.527548846032845,0.2453405246444134,-0.4277017387525615,0.0290698258757133,-2.105074033365034,-0.1925668560769344,4
7685,-2.6085444448015127,0.2420295030933449,-0.441927492321677,0.0651001176822155,-2.1998597836239906,-0.2475503867847271,4
7696,-2.7089222217797566,0.2333435785944825,-0.4511061861216229,0.0831152686744347,-2.252858270512629,-0.3101178624030469,4
7708,-2.8154972160987204,0.1961089892581574,-0.4568412249878189,0.0868425409425513,-2.2538774863131503,-0.3726853069575761,4
7719,-2.9356381477624045,0.1580508807438288,-0.4690030412658549,0.0539183008778659,-2.128515662804993,-0.4807562967201055,4
7730,-3.0627541237383644,0.1779068431468074,-0.4841479800219812,0.0427364840735163,-2.020480157235069,-0.5471157292617935,4
7742,-3.1580903120193424,0.2138976812966001,-0.4947026320159799,0.0452213356449061,-1.897156748629353,-0.6248510325735863,4
7753,-3.295670441865697,0.2076924812351811,-0.53210538631279,0.0508122389581127,-1.7768909540279965,-0.6950024220386427,4
7764,-3.392171783202026,0.2201028813580192,-0.5610155461823718,0.0508122389581127,-1.66579796804252,-0.7537779096698036,4
7776,-3.485571341064029,0.2412025949475304,-0.5876343221195076,0.0526758801811392,-1.5557241811589628,-0.8011775265308598,4
7787,-3.548353089482436,0.2486481572276712,-0.606677809092117,0.0626152661108256,-1.448708008279766,-0.842889176943073,4
7798,-3.559979221604217,0.2436833193849738,-0.6144805446980101,0.076281934486565,-1.3488262291140083,-0.8656409806108637,4
7809,-3.545251306008111,0.2267249244601562,-0.6261818285203863,0.0837364790227981,-1.1388708133521008,-0.8485771123281253,4
7821,-3.536726957360656,0.1932148107478069,-0.6578476642266915,0.0737970829151752,-1.015547337951981,-0.8258253086603345,4
7832,-3.5258754774064656,0.1733588483448281,-0.6975436821802564,0.0626152661108256,-0.8922239293462644,-0.8011775265308598,4
7843,-3.455340857704228,0.2680940545255535,-0.7420593132616242,0.0582667834943458,-0.7821501424627073,-0.7727377874780166,4
7855,-3.445651356001423,0.3351108929824414,-0.7638584760709571,0.0613728454140989,-0.6965372008196299,-0.7291301275403287,4
7866,-3.4704560993841285,0.3843390394008866,-0.7907046986494596,0.0725546622184485,-0.6465963112367509,-0.6684586614474837,4
7877,-3.51463667136848,0.3930283528675597,-0.8186975530563395,0.0924334340778215,-0.6200971345868351,-0.6077871953546387,4
7888,-3.564630309413721,0.3644830769979078,-0.842791859246736,0.115418278034884,-0.5997131024526358,-0.5565956215702141,4
7900,-3.5975720753600884,0.336351255201163,-0.8554123282561231,0.1309485774557134,-0.5141001608095582,-0.5073000573112644,4
7911,-3.611134837900844,0.316081838725277,-0.8620665523093298,0.1147970676865206,-0.4437752056952783,-0.522467916068528,4
7922,-3.6208243396036486,0.2838120872316494,-0.8698674081909139,0.0831152686744347,-0.3622390771584811,-0.5528036646468459,4
7934,-3.627799383915924,0.2515457247058325,-0.8728505306690041,0.0421152737251529,-0.2664341444962051,-0.581243403699689,4
7945,-3.605709097923748,0.2838120872316494,-0.8721625515719776,0.0036001405251974,-0.1604371540203275,-0.5945152839952684,4
7956,-3.5843934640991626,0.3400757308251388,-0.8815705717375989,-0.0212483446548915,-0.0595361924512507,-0.5679715234041095,4
7967,-3.572380005893587,0.3942687150862814,-0.8909785919032204,-0.0280816686648248,0.0128271274696671,-0.4902362200923167,4
7979,-3.569668723307022,0.4314999154547957,-0.890288733081885,-0.0181422827351383,0.0474799804279459,-0.3726853069575761,4
7990,-3.573154658061177,0.4525996290443068,-0.8762923058784452,0.0004940786054442,0.0505375944323063,-0.2266945615786205,4
8001,-3.5750944632841177,0.4559106505953754,-0.8563296337188249,0.0352819497152196,0.0586912039462658,0.0975185630279207,4
8012,-3.578967724122067,0.4327436666413281,-0.8437091647094379,0.0458425459932695,0.1086320768305439,0.2378213108942426,4
8023,-3.5960227710249084,0.3847524934737938,-0.8407260422313477,0.0477061770383595,0.1922066202697817,0.3288285255654056,4
8035,-3.614623947458964,0.2738858005140653,-0.8421038801497096,0.0340395188405565,0.2992227931489783,0.3610602215416169,4
8046,-3.6305138413064544,0.2358243030319258,-0.8425625328810604,-0.0019907729659455,0.4205077701536537,0.3326204824887738,4
8057,-3.654540757717605,0.2370646652506475,-0.8421038801497096,-0.0541725745416405,0.5530040040738505,0.2605731145620334,4
8068,-3.6549280838014,0.2531995409974613,-0.8407260422313477,-0.110081648385452,0.6936538642066078,0.1771498448013976,4
8079,-3.625088101329359,0.2639561248286705,-0.8375135933875822,-0.1628846501315739,0.8271692304343212,0.1259583020807638,4
8091,-3.591371683215403,0.282985179085835,-0.8336131654467901,-0.2423997681028749,1.0340671824792755,0.2529891696515062,4
8102,-3.5665669398326965,0.3173222009439987,-0.822368654631456,-0.2473694712456546,1.1125457137103134,0.4084598073388825,4
8113,-3.556102785962301,0.346694384959465,-0.7969002699713154,-0.2268694686820454,1.1981587221477945,0.5677223708858363,4
8125,-3.571605353725997,0.3640696229250006,-0.7636272699809729,-0.1976725314192858,1.310270907235191,0.6890653030715265,4
8136,-3.578967724122067,0.4095766826872807,-0.6762050518265834,-0.1753088876326502,1.443786206668501,0.7668006685109005,4
8147,-3.51541132353607,0.4414295911401904,-0.6335259113949282,-0.1684755636227169,1.5752632247881773,0.8388480364376408,4
8158,-3.4375143334377625,0.4807314508410515,-0.6250351966920088,-0.1722028358908335,1.6802409994635343,0.9184792560835364,4
8170,-3.3677543659031146,0.4377051155162147,-0.6369676866043694,-0.1740664669359236,1.7220282628338528,0.963982863419118,4
8181,-3.3421781451567845,0.3375916174198847,-0.6472930122326926,-0.1821422319984563,1.6883946089774935,0.9601909064957498,4
8192,-3.3545789294461548,0.2453405246444134,-0.6124147276826218,-0.2548240056039512,1.548763981343858,0.9412310597513271,4
8204,-3.3538042772785643,0.2296191029705067,-0.5171897739223393,-0.282778542525857,1.569148013478057,0.998110568920804,4
8215,-3.319697358276848,0.2987066007597416,-0.3898403317244006,-0.2666270327566641,1.714893852421813,1.0985976759003877,4
8226,-3.186380990156203,0.3400757308251388,-0.2457406662106073,-0.208233137875272,1.9778478886611652,1.244588452343134,4
8238,-3.140651113836672,0.3185625631627204,-0.265474012004552,-0.1330664821645781,2.264243704627884,1.4398747309172484,4
8249,-3.1418130920880567,0.2771934330973231,-0.277635828282588,-0.0566574159350939,2.473180054876678,1.6484327965955707,4
8260,-3.1670051615545582,0.2498919084142036,-0.2579024824886433,0.016645588374637,2.5924266503761144,1.824759228425263,4
8271,-3.1968451440265984,0.2167952487747615,-0.2227948715728968,0.0824940583260714,2.6739627956115126,1.9157664430964256,4
8283,-3.206147319645609,0.1365377130814103,-0.1805743838725928,0.1067213128019242,2.819708384076256,1.7451279466517855,4
8294,-3.1670051615545582,0.0389083283903343,-0.1236676101475135,0.0427364840735163,2.8828988953812944,1.5195059194993534,4
8305,-3.116236871341726,-0.0260412397020173,-0.0619431030189401,-0.0467180300054074,2.969531036126292,1.2597563111003975,4
8316,-2.970516544127746,-0.0016338935292484,0.056915624476079,-0.1237482964053186,3.112219277764288,1.0132784276780675,4
8328,-2.817433846517696,0.1237138588856649,0.09477703150424,-0.1647482913546004,3.3242132253188417,0.8312640915271138,4
8339,-2.6248216647327984,0.2552668113619974,0.0993654385420586,-0.1641270810062371,3.5718792416321943,0.7326729630092144,4
8351,-2.4562395741630176,0.291674492552508,0.0335111771070177,-0.1436270784426279,3.787950002293029,0.7288810060858462,4
8362,-2.2822285688121764,0.2076924812351811,-0.0614844502875891,-0.1430058680942646,3.8715245457322665,0.774384582357637,4
8373,-2.056674621080913,0.0463538906704751,-0.0926916332625434,-0.2858846044456101,3.4434598375168783,0.7061291713542649,4
8385,-1.844686610694371,-0.0988532131152279,-0.0305084734026193,-0.4138542822582988,3.138718521208607,0.5809942822452064,4
8396,-1.710982916489931,-0.1385651379211856,0.0810080509421669,-0.5368542060385257,2.965454223020012,0.4406915033150937,4
8407,-1.5656499153597458,0.2163817947018542,0.3320358337629276,-0.6020814656415967,2.980742259644612,0.3250365375782467,4
8419,-1.5075192547508438,0.5158953808450297,0.4006438913103833,-0.5498996640659017,3.167256162856766,0.2890128536148765,4
8430,-1.451712550644712,0.7041254309877589,0.3999559122133569,-0.3685058148704735,3.4302101990961185,0.3743321018371964,4
8441,-1.3745902127139944,0.7045388850606662,0.3100073445879194,-0.1169149825733217,3.639146566043513,0.5601384570390998,4
8453,-1.1905023795765524,0.524167851270985,0.1831184348456404,0.1023728301854443,3.627935342525193,0.7611127020620575,4
8464,-0.9106910320743372,0.2676806004526463,0.1698099867392268,0.0905698030327314,2.647463552167193,0.806616309397639,4
8475,-0.69095332520793,0.1063386209201295,0.3056482639157762,-0.0802634702405198,2.0879216755447225,0.6132259782214178,4
8486,-0.5867022873917361,0.1100630965441052,0.4777426635607582,-0.2218997757172022,1.781141961032611,0.4103557858005666,4
8498,-0.5425217154073846,0.3433833634083966,0.5773266979931839,-0.269111884328054,1.7006250315977336,0.2852208966915082,4
8509,-0.4855498582459023,0.4596317372515404,0.5142262326705576,-0.2206573550204755,1.7077594420097733,0.2700530379342446,4
8520,-0.3840132778202388,0.5585048731291486,0.4274901138888858,-0.1225058757085919,1.6618953655331743,0.3288285255654056,4
8532,-0.2797622400040451,0.5800180407915672,0.3939896672571766,-0.0200059137802284,1.4794582587286995,0.3705401449138282,4
8543,-0.1840387256392718,0.5125843592939614,0.4038563401541489,0.0657213280305788,1.183889884625114,0.342100405860985,4
8554,-0.108853018127529,0.3748262067562097,0.423819012313769,0.1005091889624179,0.5581000162820505,0.1240623236190796,4
8565,-0.0724221426230424,0.1969392863717826,0.4710884395075515,0.0191304297680904,0.3481444836299375,-0.0465761728255601,4
8577,-0.1014906477314589,0.0794505503099171,0.5413017816147354,-0.0572786364613937,0.2676275374964592,-0.1299994115224052,4
8588,-0.1755112021878513,0.0844119991848039,0.5933889422120119,-0.0740513464010134,0.2798579601166989,-0.0522641392744031,4
8599,-0.2088402942180125,0.2432698653120665,0.5938475949433629,-0.064111960471327,0.3012611913528181,0.07476675936013,4
8610,-0.1727999196012865,0.3553803094583274,0.6128929616402812,-0.0541725745416405,0.2706851348022187,0.1487101057485545,4
8621,-0.1553575466146504,0.4104035908330952,0.6553427757062606,-0.0392634854691744,0.2034178437881016,0.1562940506590816,4
8633,-0.1751238761040563,0.3417295471167677,0.6867792850468908,-0.0262180376197348,0.1575537673115029,0.1107904433235002,4
8644,-0.2053511846598921,0.2225869947632733,0.711790896699989,-0.0492028713988609,0.1616305637191823,0.0178872812544438,4
8655,-0.225504840233093,0.1861827025405734,0.7473571603470867,-0.2001573829906756,0.2971843782465379,-0.2172146382064093,4
8666,-0.244496517554909,0.2378915733964619,0.7737447301942382,-0.2181725238049585,0.4042005511257346,-0.2740941473758861,4
8678,-0.2561226496766894,0.3636561688520933,0.7654833418569938,-0.1597785882118208,0.5152935371112115,-0.2646142240036748,4
8689,-0.2576719540118693,0.5034849807221917,0.6576379190873246,-0.0529301436669774,0.6039641094572501,-0.2247985831169364,4
8700,-0.2584466061794592,0.3963359854508175,0.6239081460899398,0.0526758801811392,0.6447321904242497,-0.1830869327047232,4
8711,-0.2619357157375795,0.2378915733964619,0.6358387562779915,0.1147970676865206,0.6437129913223297,-0.1413753133563006,4
8723,-0.2630976939889645,0.0885499288816867,0.647312593459001,0.1135546368118575,0.6457513895261695,-0.1034556509312463,4
8734,-0.2568973018442793,0.062902220490196,0.6640628167748557,0.0452213356449061,0.6732698320724084,-0.078807899865562,4
8745,-0.2375182984386684,0.2064521190164594,0.7076592626692128,-0.0467180300054074,0.715057095442727,-0.0655360195699825,4
8756,-0.2057385107436871,0.4149549746028854,0.762041566647553,-0.0243543963967083,0.7945547756798822,-0.012448467323874,4
8768,-0.172409418713526,0.5258216675626138,0.7833820767255347,0.0694486002986954,0.8251308322304816,-0.0029685439516627,4
8779,-0.1282288467291744,0.4815583589868661,0.7377198138157895,0.1048576715788977,0.817996405119841,-0.0617440315828237,4
8790,-0.0596340322498771,0.282985179085835,0.656032634527596,0.0539183008778659,0.7446138860970032,-0.1963588440640933,4
8801,-0.0557575966079618,0.2151414324831325,0.6507543686684423,-0.031187730584578,0.6467705886280892,-0.3537254912769442,4
8813,-0.0662217504783573,0.184938951354041,0.6507543686684423,-0.0964149800097126,0.5896952886331707,-0.4561085145906307,4
8824,-0.0902518416934735,0.2209331784716444,0.6615383470281168,-0.118157393092112,0.5937721017394509,-0.4428366342950512,4
8835,-0.1045892564018187,0.2966359414273947,0.6734708369404769,-0.0939301284383228,0.6518666008362893,-0.3328696660708377,4
8846,-0.0918011460286534,0.3793775905259999,0.6805837137250347,0.0806304171030449,0.8638604815964396,-0.0560560961977713,4
8858,-0.0449061166537715,0.4331571207142353,0.6658993074245684,0.1918273340864318,0.9678190571698768,0.0273671735628644,4
8869,0.0450043316501115,0.3864096987332334,0.6133516143716322,0.2402818633940102,0.9841262928963967,0.0387430753967597,4
8880,0.2201773152523378,0.1741857564906425,0.5883418824428425,0.1999030889710282,0.8750717051147596,-0.0219283906960852,4
8891,0.2604814515947741,0.1063386209201295,0.5979792289741394,0.1029940405338077,0.6977306773128881,-0.1148315527651416,4
8903,0.2763713454422647,0.1270248804367334,0.5890298615398689,-0.0001271317429191,0.5326199719396513,-0.1944628345386185,4
8914,0.2798604550003851,0.2308594651892284,0.574574781605078,-0.0603846882032104,0.4164309737459744,-0.2323825280274635,4
8925,0.2821844115031549,0.3429699093354894,0.5592005164832763,-0.0510665126218873,0.3573173089444177,-0.2229026046552523,4
8936,0.28024778108418,0.430259553236074,0.5509391281460325,0.1054788819272611,0.3450868863241779,-0.1755030188579867,4
8948,0.2783079758612396,0.4670772995316811,0.5580538846548989,0.2079788438556246,0.3664901175602971,-0.1698150524091437,4
8959,0.2984616314344406,0.4046118448445834,0.5605764746773293,0.2701000415389424,0.3664901175602971,-0.1736070403963026,4
8970,0.3356671591065169,0.2821582709400205,0.56149565986434,0.2558121628148397,0.3053380044590982,-0.1925668560769344,4
8982,0.3573701190148978,0.1357108049355957,0.5915543312866081,0.1837515995577082,0.1911874211678619,-0.2266945615786205,4
8993,0.3135768731143411,0.1187490210429676,0.5904058197339217,0.0930546444261848,0.0678640125621452,-0.245654408323043,4
9004,0.2511792759757636,0.1534994969740385,0.5906351460995973,0.0172667987230004,-0.0177489290809322,-0.2380704634125159,4
9015,0.1914993110316819,0.195282081112343,0.5842121281363749,-0.0206271241285918,-0.0432289567247307,-0.2077347458979886,4
9027,0.1566177398623753,0.2250677192007167,0.5651667614394567,-0.0237331860483449,-0.0167297132804115,-0.1736070403963026,4
9038,0.1527444790244255,0.2345839408132041,0.5564467203708617,0.0327970981438298,0.0699024107659849,-0.1243114761373529,4
9049,0.1604941755042906,0.2093496864946208,0.5697551684772751,0.0725546622184485,0.1065936786267042,-0.0920797490973509,4
9060,0.1635959589786159,0.1642560808052477,0.5839809220463906,0.1073425231502876,0.136150519376783,-0.044680194363876,4
9071,0.1604941755042906,0.0219465444977061,0.5596591692146273,0.1092061541953776,0.1402273324830631,-0.0048645224133469,4
9083,0.1480933912149203,0.0062251228237995,0.5520876396987185,0.0657213280305788,0.102516865520424,0.0008234129717054,4
9094,0.1229013217484192,0.0281517445591251,0.5548414358111333,-0.0032331936626722,0.0332111596038665,-0.0257203476194535,4
9105,0.0868609471316932,0.0670367612192682,0.56149565986434,-0.0610059087295102,-0.0340561481088513,-0.0560560961977713,3
9116,0.0450043316501115,0.1046848046285006,0.5722796382240143,-0.0808846805888831,-0.0687090010671301,-0.0560560961977713,3
9127,0.0089607822294199,0.1133707291273629,0.5787045359115457,-0.0622483294262369,-0.0574977775488102,-0.012448467323874,3
9139,-0.0026653498923603,0.1022006912232464,0.5823756374866622,0.0079486231416772,0.0658256143583055,0.108894464861816,3
9150,0.0190376100160204,0.0910340422869407,0.5773266979931839,0.0327970981438298,0.1096512759324637,0.1600860075824499,3
9161,0.0585670941908667,0.081104366601546,0.5633302707897438,0.0346607291889199,0.0923248578026248,0.1942137130841359,3
9172,0.0818225332383929,0.1104765506170123,0.5773266979931839,0.016645588374637,0.0199615378817069,0.2093815718413995,3
9183,0.061668877665192,0.1576374266709215,0.5851294335990768,-0.0069604659307888,-0.0697282001690499,0.2074855933797154,3
9195,0.034927503863511,0.2002469189550403,0.5927009631149854,-0.0144150104670218,-0.1431107191918877,0.1942137130841359,3
9206,-0.0007255446694199,0.2027310323602944,0.6000431662652186,0.0017364993021709,-0.1726675766405672,0.1809418327885565,3
9217,-0.0325053323644011,0.1994200108092259,0.6032556151089844,0.0296910362240767,-0.1492259305020075,0.1733578878780294,3
9228,-0.0418075079834117,0.1973527404446898,0.6062387375870745,0.0570243627976191,-0.0758434114791698,0.167669952492977,3
9240,-0.0367690940901115,0.1733588483448281,0.617712574768084,0.0831152686744347,0.1494001410989426,0.1733578878780294,3
9251,-0.0208792002426208,0.1481212050584339,0.6303330437774711,0.0675849692536053,0.2380706800477796,0.1790458543268724,3
9262,0.0105132613685653,0.1489481132042484,0.6271205949337053,0.035903160063583,0.2696659357002988,0.1714619094163452,3
9273,0.062056203748987,0.1559836103792927,0.5931596158463365,-0.0032331936626722,0.2339938836401002,0.1468141272868704,3
9284,0.062056203748987,0.1617753563678044,0.5759507397991309,-0.0392634854691744,0.1524577551033029,0.1145824002468684,3
9296,0.0500427455434117,0.1601181511083649,0.5555294149081598,-0.0572786364613937,0.0617488012520253,0.0842466827323412,3
9307,0.0271778073836459,0.1576374266709215,0.5445142304585012,-0.0479604507021342,-0.0024608924563321,0.0728707808984458,3
9318,-0.0015001968370099,0.1609450592541792,0.5472680265709157,-0.0100665278505419,-0.0228449412891322,0.0937265750407618,3
9329,-0.0189425698236459,0.1324031723523381,0.5470387002052403,0.0936758547745482,0.0464607813260261,0.1714619094163452,3
9340,-0.0162281124331156,0.0790337072691993,0.5463507211082139,0.117281909079974,0.1055744795247844,0.1866297681736088,3
9352,-0.0046019803113352,0.0500783662944508,0.549333843586304,0.1166606987316107,0.1667265759273823,0.1828378112502406,3
9363,0.0058621735590601,0.0327031283289152,0.5516289869673676,0.0924334340778215,0.2146290506078207,0.1562940506590816,3
9374,0.0442296794825215,0.056697020428777,0.5445142304585012,0.0483273873867229,0.2268594732280605,0.1202703666957114,3
9385,0.0732950097869724,0.0984796045670815,0.5394671706893316,-0.0032331936626722,0.1820146125519825,0.0842466827323412,3
9396,0.0845338158249577,0.117922112897153,0.535796069114215,-0.0411271165142645,0.0902864429001843,0.0652868670517094,3
9408,0.0690312480612621,0.1319863293116202,0.5302884768893857,-0.0492028713988609,-0.0055185064606924,0.0880386396557094,3
9419,0.0310510682215957,0.1307459670928984,0.5316644350834385,-0.0274604583164615,-0.0656514037613706,0.1316462685296068,3
9430,-0.0108023724560204,0.0931013126514768,0.553234271527096,0.0501910286097494,-0.0269217376968116,0.1961096915458201,3
9441,-0.0286288967224859,0.0389083283903343,0.578933862277221,0.0682061796019686,0.0495183786317856,0.2131735287647678,3
9452,-0.0154534602655256,0.0103630525206823,0.5874245769801405,0.0607516350657356,0.1167857030431043,0.2150695072264519,3
9464,0.0124498917875402,0.0169817066550086,0.5807684732026249,0.0408728530284262,0.146342543793183,0.1942137130841359,3
9475,0.0566304637718918,0.0790337072691993,0.5766387188961573,0.022857702036207,0.1371697184787028,0.1600860075824499,3
9486,0.0558558116043019,0.0964089452347347,0.574574781605078,0.011054674883494,0.1045552804228645,0.1335422469912909,3
9497,0.0465536359852913,0.1022006912232464,0.5725089645896897,0.0060849819186508,0.0678640125621452,0.1259583020807638,3
9508,0.035702156031101,0.1117169128357341,0.5741142491494182,0.0073274127933139,0.0484991795298657,0.135438225452975,3
9520,0.0283397856350309,0.1030309883368718,0.5672306987305361,0.0203728606427535,0.0546143908399856,0.1600860075824499,3
9531,0.0302764160540057,0.0906171992462228,0.5562173940051861,0.0421152737251529,0.0872288455944247,0.2112775503030837,3
9542,0.0368673090864514,0.0951685830160129,0.5619543125956911,0.0433576944218797,0.1045552804228645,0.2112775503030837,3
9553,0.0372546351702464,0.0964089452347347,0.576409392530482,0.0452213356449061,0.129016125663344,0.1999016484691883,3
9564,0.034927503863511,0.0831716369660821,0.5807684732026249,0.0433576944218797,0.1555153524090624,0.1866297681736088,3
9576,0.0461663099014964,0.0273248364133107,0.5704431475743016,0.03031224657244,0.1697841732331418,0.1657739429675022,3
9587,0.062056203748987,0.005398214677985,0.5608058010430047,0.0011152889538075,0.1606113646172625,0.1392301823763433,3
9598,0.0748443141221523,0.0140841391768473,0.5513977808773833,-0.0411271165142645,0.1249393125570638,0.1145824002468684,3
9609,0.0771714454288877,0.0517321825860797,0.540613802517709,-0.0796422598921564,0.0739792238722651,0.1051025079384478,3
9620,0.0690312480612621,0.0976526964212671,0.5332715993674759,-0.0933089180899594,0.0219999360855465,0.1126864217851843,3
9632,0.053919181185327,0.1224734966669433,0.5371720273082681,-0.0224907653516182,-0.0075569046645321,0.1752538663397135,3
9643,0.0364768081986909,0.1030309883368718,0.5470387002052403,0.0284486155273499,0.0260767491918267,0.2112775503030837,3
9654,0.0147770230942756,0.0575239285745914,0.5601178219459784,0.063236476459189,0.085190447390585,0.2378213108942426,3
9665,0.0031477161685297,0.015741344436287,0.5731969436867164,0.0700698106470587,0.1494001410989426,0.249197212728138,3
9676,0.0426803751473416,-0.0032910987886881,0.5619543125956911,0.0452213356449061,0.1911874211678619,0.249197212728138,3
9688,0.0783334236802726,0.0331165824018224,0.5520876396987185,-0.0001271317429191,0.1860914089596618,0.2397172893559268,3
9699,0.1011983618400383,0.0682805124058006,0.5525462924300696,-0.0429907577372909,0.1320737229691036,0.2264454090603473,3
9710,0.1008110357562434,0.1022006912232464,0.5495631699519794,-0.0690816534361702,0.0525759926361459,0.2150695072264519,3
9721,0.0833718375735729,0.1311594211658057,0.5355667427485397,-0.0709452946591967,-0.0228449412891322,0.2074855933797154,3
9732,0.0562431376880968,0.1460539346938978,0.5298298241580347,-0.0249756067450716,-0.07992022458545,0.1847337897119247,3
9744,0.0419025481757861,0.1460539346938978,0.527993333508322,0.0122971057581571,-0.0422097576228109,0.1904217250969771,3
9755,0.0508173977110016,0.1241273129585722,0.5142262326705576,0.0396304221537631,0.0128271274696671,0.2055896149180313,3
9766,0.062443529832782,0.0885499288816867,0.5073426822516754,0.043978904770243,0.057672004844346,0.2131735287647678,3
9777,0.0794954019316576,0.0653829449276394,0.5190458457983604,0.0234789123845703,0.0760176220761048,0.2036936053925566,3
9788,0.081435207154598,0.073245350248498,0.5250102110302318,-0.0181422827351383,0.0566528057424261,0.1714619094163452,3
9800,0.0729076837031774,0.0984796045670815,0.5307471296207368,-0.0659756016943534,0.0067119161595473,0.1335422469912909,3
9811,0.0574051159394817,0.1307459670928984,0.5355667427485397,-0.0976574108843757,-0.0564785784468903,0.103206498412973,3
9822,0.0384166134216313,0.1427429131428292,0.5396964970550072,-0.104490734894309,-0.1145730942423296,0.0823506732068664,3
9833,0.0194249360998153,0.1233004048127577,0.5463507211082139,-0.0709452946591967,-0.1645139504280068,0.1013105199512889,3
9845,-0.0034400020599503,0.0980661504941742,0.5580538846548989,-0.044854388782381,-0.1390339060856075,0.1392301823763433,3
9856,-0.0220411784940057,0.0885499288816867,0.5699844948429506,-0.0193847034318651,-0.0809394236873698,0.1714619094163452,3
9867,-0.0208792002426208,0.1005468749316176,0.5858174126961033,0.0023577096505343,-0.0085761037664519,0.1904217250969771,3
9878,-0.0104150463722254,0.0959954911618275,0.5922423103836345,0.0129183161065205,0.0535951917380658,0.1961096915458201,3
9889,-0.0015001968370099,0.085242296298429,0.5954547592274002,0.0085698334900406,0.0902864429001843,0.188525746635293,3
9901,0.007024151810445,0.084825453257711,0.5904058197339217,-0.011930158895632,0.0994592682146645,0.167669952492977,3
9912,0.0143865222065151,0.091447496359848,0.5805391468369495,-0.0380210647724477,0.0882480446963445,0.1392301823763433,3
9923,0.0167136535132505,0.0856557503713361,0.5711330063956369,-0.0591422675064837,0.0637872161544659,0.1183743882340273,3
9934,0.0155516752618656,0.0835850910389894,0.5660840669021586,-0.0771574083207666,0.0219999360855465,0.103206498412973,3
9945,0.0093512831171805,0.0976526964212671,0.5649374350737812,-0.0647331708196903,0.0148655256735068,0.1107904433235002,3
9957,-0.0022780238085653,0.1117169128357341,0.5642475762524459,-0.038642275120811,0.013846326571587,0.1259583020807638,3
9968,-0.0158407863493206,0.1005468749316176,0.5697551684772751,-0.0069604659307888,0.0209807369836267,0.135438225452975,3
9979,-0.0201045480750309,0.0736588043214053,0.5757214134334555,0.0197516502943902,0.0352495578077061,0.1392301823763433,3
9990,-0.0189425698236459,0.0438731662330317,0.5775560243588593,0.0321758877954665,0.0546143908399856,0.1525020626719228,3
10002,-0.0139041559303457,0.0198758851653592,0.5761800661648065,0.0253425536075968,0.0749984229741849,0.1752538663397135,3
10013,-0.0065386107303101,0.0165682525821015,0.5725089645896897,0.0029789199988976,0.0892672437982644,0.1980056700075042,3
10024,0.007798803978035,0.03187283121529,0.5598884955803027,-0.0473392403537708,0.0872288455944247,0.2188614952136108,3
10035,0.0205900891551658,0.0595911989391275,0.5424502931674218,-0.0529301436669774,0.0688832116640651,0.222653452136979,3
10046,0.0240760239093206,0.0893768370275013,0.5369427009425924,-0.0361574235494212,0.0566528057424261,0.2302373970475062,3
10058,0.0194249360998153,0.0988930586399887,0.5433675986301237,-0.0032331936626722,0.0617488012520253,0.2473012342664539,3
10069,0.0229140456579357,0.0773798909775702,0.5536929242584471,0.0272061948306232,0.0760176220761048,0.2662610499470857,3
10080,0.0314415691093562,0.0711746909161513,0.5536929242584471,0.0371455807603097,0.0811136342843048,0.2719490163959288,3
10091,0.0376419612540414,0.0728285072077801,0.5559880676395108,0.0265849743043235,0.0729600247703453,0.2624690930237175,3
10103,0.0391912655892213,0.084825453257711,0.5582832110205744,0.0048425612219241,0.057672004844346,0.249197212728138,3
10114,0.0403532438406062,0.0976526964212671,0.5530049451614206,-0.0150362208153852,0.0464607813260261,0.2416132988814015,3
10125,0.0430677012311366,0.1170952047513387,0.5426796195330973,-0.031187730584578,0.0301535622981069,0.2359253324325585,3
10136,0.0484934412082317,0.1456404806209907,0.5316644350834385,-0.0237331860483449,0.0291343464975863,0.2264454090603473,3
10147,0.0574051159394817,0.164669534878155,0.5328129466361249,-0.0057180452340621,0.0403455700159062,0.2169655167519267,3
10159,0.0678692698098771,0.1601181511083649,0.5461213947425383,0.0178880090713637,0.0597104030481857,0.2169655167519267,3
10170,0.0961599479467381,0.117508658824246,0.5534635978927717,0.035903160063583,0.0678640125621452,0.2207574736752949,3
10181,0.0946106436115582,0.0897902911004083,0.5642475762524459,0.0408728530284262,0.0525759926361459,0.2169655167519267,3
10192,0.0856957940763427,0.0728285072077801,0.576409392530482,0.03031224657244,0.018942338779787,0.2017976269308724,3
10203,0.0729076837031774,0.0757260746859414,0.5805391468369495,0.0067061922670141,-0.0157105141784917,0.1752538663397135,3
10215,0.0566304637718918,0.0922744045056625,0.5803098204712741,-0.0218695550032549,-0.0462865707290911,0.1487101057485545,3
10226,0.0453916577339065,0.091447496359848,0.5819169847553112,-0.0498240919251606,-0.0687090010671301,0.1392301823763433,3
10237,0.0329908734445361,0.0798640043828244,0.5904058197339217,-0.0417483268626278,-0.0381329445165307,0.1752538663397135,3
10248,0.0167136535132505,0.0773798909775702,0.5986672080711658,-0.0237331860483449,0.0179231396778672,0.2188614952136108,3
10259,0.0190376100160204,0.0682805124058006,0.6133516143716322,-0.0044756143593989,0.0790752360804652,0.249197212728138,3
10271,0.0318288951931512,0.056697020428777,0.6080752282367873,0.0073274127933139,0.1320737229691036,0.2681570594725605,3
10282,0.0422930490635466,0.0405621446819632,0.5998138398995432,0.0073274127933139,0.1626497628211022,0.2738449948576129,3
10293,0.0450043316501115,0.033943490547637,0.5949961064960492,0.0004940786054442,0.168764974131222,0.275740973319297,3
10304,0.0442296794825215,0.0364242149850803,0.5869640445244808,-0.0113089485472686,0.1524577551033029,0.2738449948576129,3
10315,0.0411278960081962,0.0513187285131724,0.5805391468369495,-0.0287028790131882,0.1198433003488638,0.2738449948576129,3
10327,0.0372546351702464,0.0736588043214053,0.5787045359115457,-0.0423695473889276,0.0566528057424261,0.3041807123721401,3
10338,0.0298890899702108,0.0819312747473605,0.5770973716275083,-0.0324301512813047,0.0607296021501055,0.3307245040270897,3
10349,0.0201995882674053,0.0864826585171506,0.5761800661648065,-0.0193847034318651,0.0892672437982644,0.3534763076948804,3
10360,0.0043128692238802,0.088963382954594,0.5725089645896897,-0.0075816762791521,0.1300353247652639,0.3705401449138282,3
10371,0.0054748474752652,0.0922744045056625,0.5702138212086262,-0.0026119833143089,0.1657073768254625,0.3800200372222487,3
10383,0.0132245439551302,0.1121303669086413,0.5686085366488978,-0.0057180452340621,0.1871106247601825,0.3781240898243552,3
10394,0.0271778073836459,0.1377780753001319,0.5653960878051322,-0.011930158895632,0.1860914089596618,0.3648522095287758,3
10405,0.0384166134216313,0.1551533132656673,0.5610351274086801,-0.0193847034318651,0.1595921655153426,0.3458923627843533,3
10416,0.0434550273149316,0.1692209186479451,0.5571346994678882,-0.0268392479680981,0.1208624994507836,0.3307245040270897,3
10427,0.0391912655892213,0.1758395727822713,0.5504804754146815,-0.0262180376197348,0.0627680003539452,0.3250365375782467,3
10439,0.026403155216056,0.1745992105635497,0.5417623140703953,-0.0156574311637485,0.0586912039462658,0.3269325160399308,3
10450,0.0155516752618656,0.1808044106249689,0.5396964970550072,-0.0007483522692188,0.0749984229741849,0.3231405591165626,3
10461,0.0302764160540057,0.1878365188322023,0.5465800474738893,0.011054674883494,0.1014976664185042,0.3136606357443513,3
10472,0.0469409620690863,0.1882499729051095,0.5456627420111875,0.0129183161065205,0.1218817152513043,0.2947008200637195,3
10484,0.0601195733300121,0.1824582269165977,0.5431382722644481,0.0048425612219241,0.1218817152513043,0.2643650714854016,3
10495,0.0643833350557224,0.1758395727822713,0.5346475575615287,-0.0082028866275155,0.102516865520424,0.2302373970475062,3
10506,0.061668877665192,0.1671502593155984,0.5217977621864663,-0.0212483446548915,0.0719408256684254,0.2093815718413995,3
10517,0.053531855101532,0.1609450592541792,0.5174386815143233,-0.044854388782381,0.0301535622981069,0.1923177346224518,3
10529,0.0477156142366763,0.1621888104407116,0.5243222319332055,-0.0498240919251606,0.0332111596038665,0.1904217250969771,3
10540,0.0434550273149316,0.1741857564906425,0.5374013536739435,-0.044854388782381,0.0454415822241062,0.1923177346224518,3
10551,0.0446170055663164,0.1948686270394358,0.549333843586304,-0.0299453098878513,0.0607296021501055,0.1904217250969771,3
10562,0.062830855916577,0.1874230647592951,0.5534635978927717,-0.0131725897702951,0.0749984229741849,0.1771498448013976,3
10573,0.0647706611395174,0.1675671023563162,0.5513977808773833,0.0004940786054442,0.085190447390585,0.1543980411336069,3
10585,0.0574051159394817,0.1390218264866643,0.5507098017803569,0.0073274127933139,0.0933440569045446,0.1297502900679226,3
10596,0.0492680933758218,0.1146144803138953,0.549792496317655,0.0079486231416772,0.0994592682146645,0.1145824002468684,3
10607,0.0477156142366763,0.1009603290045248,0.5495631699519794,0.0036001405251974,0.1004784673165843,0.108894464861816,3
10618,0.053919181185327,0.0885499288816867,0.5495631699519794,-0.0113089485472686,0.0760176220761048,0.1013105199512889,3
10629,0.0667072915584923,0.078620253196292,0.5419916404360707,-0.0193847034318651,0.057672004844346,0.0994145414896048,3
10641,0.0744569880383573,0.0757260746859414,0.5312057823520877,-0.0237331860483449,0.0423839682197459,0.1051025079384478,3
10652,0.0744569880383573,0.0761395287588486,0.5222582946421259,-0.0193847034318651,0.0352495578077061,0.1259583020807638,3
10663,0.0841464897411628,0.0831716369660821,0.527534680776971,-0.0082028866275155,0.0393263709139863,0.1562940506590816,3
10674,0.0965472740305331,0.0897902911004083,0.5339595784645023,0.0048425612219241,0.0525759926361459,0.1866297681736088,3
10685,0.1054621235657486,0.0943416748701986,0.5332715993674759,0.016645588374637,0.0617488012520253,0.2131735287647678,3
10697,0.1070114279009285,0.0893768370275013,0.5344182311958533,0.0209940709911169,0.0535951917380658,0.222653452136979,3
10708,0.1023603400914233,0.0773798909775702,0.5396964970550072,0.0160243780262737,0.0342303587057863,0.2150695072264519,3
10719,0.0977124270858836,0.0782067991233847,0.5440555777271502,-0.0156574311637485,-0.0065377055626123,0.1904217250969771,3
10730,0.0880229253830781,0.0939282207972913,0.5452040892798364,-0.0274604583164615,-0.0279409367987314,0.1866297681736088,3
10741,0.0721330315355875,0.1050982587014079,0.5435969249957991,-0.0293240893615515,-0.0442481558266505,0.188525746635293,3
10753,0.0558558116043019,0.1146144803138953,0.5479560056679423,-0.0200059137802284,-0.0422097576228109,0.1923177346224518,3
10764,0.0461663099014964,0.1170952047513387,0.5674600250962115,-0.0038544040110356,-0.0146913150765718,0.1961096915458201,3
10775,0.0570177898556868,0.1141976372731774,0.5775560243588593,0.0122971057581571,0.0291343464975863,0.1999016484691883,3
10786,0.0663199654746973,0.1104765506170123,0.5871933708901562,0.022857702036207,0.0678640125621452,0.1999016484691883,3
10798,0.0721330315355875,0.1104765506170123,0.5865053917931298,0.0265849743043235,0.0862096464925049,0.1942137130841359,3
10809,0.0787207497640676,0.1084058912846656,0.5761800661648065,0.0259637639559601,0.0821328333862247,0.1866297681736088,3
10820,0.0818225332383929,0.0984796045670815,0.566313393267834,0.0172667987230004,0.0556335899419055,0.1866297681736088,3
10831,0.081435207154598,0.0935147667243841,0.5592005164832763,0.0122971057581571,0.057672004844346,0.1923177346224518,3
10843,0.0763967932612978,0.1046848046285006,0.5562173940051861,0.0129183161065205,0.0699024107659849,0.2017976269308724,3
10854,0.0558558116043019,0.1233004048127577,0.5562173940051861,0.0209940709911169,0.0882480446963445,0.2112775503030837,3
10865,0.0636055080841669,0.127851788582548,0.5530049451614206,0.0290698258757133,0.1106704917329844,0.2169655167519267,3
10876,0.0856957940763427,0.138608372413757,0.5461213947425383,0.0321758877954665,0.1330929220710234,0.2169655167519267,3
10888,0.1101132113752539,0.1518456806824096,0.5360253954798906,0.0315546774471031,0.1453233446912632,0.2112775503030837,3
10899,0.1275524095579244,0.1584643348167358,0.5268467016799445,0.03031224657244,0.1422657306869028,0.2036936053925566,3
10910,0.1384038895121148,0.1609450592541792,0.5229462737391526,0.0241001329108701,0.1218817152513043,0.1600860075824499,3
10921,0.1422803251540301,0.1534994969740385,0.5185853133427007,0.0197516502943902,0.1106704917329844,0.1373342039146591,3
10933,0.1356894321215845,0.1319863293116202,0.5117017629238184,0.0141607368032472,0.0933440569045446,0.1164783787085525,3
10944,0.1236759739160091,0.107578983138851,0.5146848854019086,0.0060849819186508,0.0739792238722651,0.0975185630279207,3
10955,0.1004237096724484,0.0868961125900579,0.5571346994678882,0.0023577096505343,0.0617488012520253,0.0918305965790777,3
10966,0.0864736210478982,0.0790337072691993,0.5695258421115996,0.0079486231416772,0.0597104030481857,0.1051025079384478,3
10988,0.0825971854059829,0.0351838527663585,0.5773266979931839,0.0272061948306232,0.0658256143583055,0.1487101057485545,3
10999,0.0853084679925478,0.0136706851039402,0.5770973716275083,0.0259637639559601,0.0699024107659849,0.1600860075824499,3
11011,0.0880229253830781,0.0215330904247989,0.5725089645896897,0.0073274127933139,0.0637872161544659,0.1828378112502406,3
11022,0.088410251466873,0.0459404365975678,0.5692965157459242,0.0054637715702874,0.0505375944323063,0.1980056700075042,3
11033,0.0856957940763427,0.0550398151693374,0.5699844948429506,0.0104334645351307,0.0393263709139863,0.2093815718413995,3
11044,0.0872482732154882,0.0513187285131724,0.5692965157459242,0.016645588374637,0.0321919605019466,0.2188614952136108,3
11055,0.0977124270858836,0.0488346151079184,0.5670013723648605,0.0185092194197271,0.0270959482937466,0.222653452136979,3
11067,0.0980997531696785,0.0533859988777085,0.565854740536483,0.0160243780262737,0.0230191518860672,0.2302373970475062,3
11078,0.0915088601372329,0.0608315611578493,0.5683792102832221,0.0104334645351307,0.0219999360855465,0.2416132988814015,3
11089,0.081047881070803,0.0641425827089178,0.5704431475743016,0.0036001405251974,0.0281151473956664,0.2567811576386651,3
11100,0.0752316402059473,0.0670367612192682,0.5688378630145732,-0.0038544040110356,0.0423839682197459,0.2700530379342446,3
11111,0.0744569880383573,0.0736588043214053,0.5688378630145732,-0.0212483446548915,0.0627680003539452,0.275740973319297,3
11123,0.0794954019316576,0.0873095666629651,0.5686085366488978,-0.0231119756999816,0.057672004844346,0.2700530379342446,3
11134,0.0903468818858479,0.1067520749930367,0.565854740536483,-0.0218695550032549,0.0403455700159062,0.2586771361003492,3
