timestamp,ax,ay,az,gx,gy,gz
74,0.161499,-0.229858,0.950439,2.441406,7.141113,-15.258788
85,0.163208,-0.227905,0.966553,2.868652,6.958007,-15.380858
96,0.165894,-0.228638,0.983887,3.417969,5.554199,-16.967773
107,0.167725,-0.231567,0.991821,3.112793,5.065917,-17.944336
119,0.167969,-0.234619,0.990723,2.563476,5.004883,-18.737793
130,0.166748,-0.238281,0.987793,2.136230,5.615234,-19.226074
141,0.164551,-0.247437,0.978516,1.892090,7.141113,-19.470215
152,0.169556,-0.253418,0.969482,1.953125,8.911133,-19.592285
163,0.176147,-0.260742,0.962280,2.075195,10.192870,-19.653320
175,0.181763,-0.264282,0.957275,1.770019,10.742187,-19.470215
186,0.187134,-0.263062,0.952759,0.915527,10.681151,-19.042969
197,0.189819,-0.263672,0.949829,0.305176,9.338379,-18.005371
208,0.188599,-0.269897,0.947510,0.122070,8.361816,-17.700195
220,0.186157,-0.279175,0.946411,-0.976562,7.507324,-17.578125
231,0.184204,-0.282471,0.948730,-2.441406,7.324218,-17.272949
242,0.182495,-0.275513,0.951538,-2.929687,8.117676,-16.601562
253,0.183228,-0.278931,0.947754,-2.380371,9.765625,-15.686034
265,0.185425,-0.286377,0.944458,-1.953125,11.474608,-14.831542
276,0.190430,-0.290771,0.943237,-2.441406,12.634276,-14.282226
287,0.196167,-0.291504,0.940918,-3.479004,13.183593,-13.793944
298,0.200684,-0.289795,0.934204,-3.051758,13.488769,-11.718749
310,0.203857,-0.287354,0.925781,-1.892090,13.183593,-10.375976
321,0.204712,-0.285522,0.921997,-0.915527,12.573241,-9.582520
332,0.200562,-0.279907,0.930176,-0.061035,11.901855,-9.521484
343,0.203125,-0.275391,0.935303,0.610352,11.596679,-9.765625
354,0.206787,-0.275269,0.939331,0.915527,11.657714,-9.826660
366,0.207520,-0.278564,0.941895,0.549316,11.779784,-9.704590
377,0.205811,-0.279541,0.943359,-0.854492,12.084960,-9.704590
388,0.204102,-0.274658,0.943359,-4.455566,13.610839,-10.742187
399,0.205322,-0.264160,0.941895,-4.821777,14.404296,-11.352538
411,0.210083,-0.252441,0.939819,-3.906250,14.831542,-12.084960
422,0.215576,-0.246094,0.938843,-2.502441,14.526366,-13.122558
433,0.222046,-0.252075,0.939087,-1.708984,13.488769,-14.587401
444,0.223633,-0.253296,0.942139,-1.892090,11.901855,-16.174316
456,0.223389,-0.251953,0.945312,-2.563476,10.375976,-17.517090
467,0.224121,-0.247803,0.948853,-2.868652,9.277344,-18.371582
478,0.225586,-0.242065,0.950806,-2.197266,8.850098,-18.493652
489,0.227783,-0.238159,0.950073,1.770019,10.314940,-18.066406
501,0.234253,-0.234375,0.947266,3.784179,11.718749,-17.883301
512,0.239624,-0.230225,0.940552,6.042480,13.305663,-17.517090
523,0.266724,-0.224121,0.922363,9.826660,14.587401,-17.272949
534,0.275269,-0.224731,0.919434,11.657714,15.014647,-17.822266
546,0.281128,-0.233032,0.920166,6.713867,14.160155,-18.432617
557,0.295776,-0.244751,0.925781,-1.647949,12.329101,-18.493652
568,0.304443,-0.252930,0.936157,-5.554199,9.704590,-18.005371
579,0.303345,-0.258179,0.946533,-2.929687,3.662109,-16.601562
591,0.302246,-0.257568,0.953857,-2.441406,0.915527,-15.808105
602,0.298950,-0.252563,0.961304,-2.502441,-1.586914,-14.282226
613,0.290527,-0.245728,0.968628,-2.807617,-3.479004,-12.573241
624,0.281738,-0.234253,0.970581,-3.051758,-4.211426,-11.169433
635,0.281250,-0.232300,0.964111,-2.563476,-3.723144,-10.192870
647,0.280640,-0.234497,0.955566,-0.549316,-1.770019,-10.009766
658,0.283203,-0.238647,0.949097,2.441406,0.915527,-10.864257
669,0.286133,-0.242432,0.942749,5.187988,3.051758,-12.145995
680,0.288208,-0.246582,0.933838,4.394531,2.258301,-14.770507
691,0.293457,-0.243896,0.921265,2.380371,-0.488281,-16.479492
703,0.298828,-0.231934,0.907227,1.525879,-4.089355,-18.005371
714,0.300537,-0.215454,0.893433,2.502441,-8.361816,-19.104004
725,0.293335,-0.219727,0.888672,3.845215,-12.817382,-19.958496
736,0.285522,-0.241943,0.891724,3.234863,-16.235352,-20.385740
748,0.278687,-0.251953,0.888062,-0.976562,-17.456055,-20.385740
759,0.271973,-0.250366,0.884766,-8.850098,-17.089844,-20.263670
770,0.264893,-0.244385,0.889282,-18.127441,-16.235352,-19.470215
781,0.258179,-0.234131,0.895386,-29.663084,-13.610839,-14.404296
793,0.253540,-0.218262,0.892456,-30.029295,-12.939452,-11.596679
804,0.252563,-0.210571,0.887207,-28.686522,-13.244628,-9.948730
815,0.252197,-0.221191,0.913818,-26.977537,-13.549804,-8.728027
826,0.250732,-0.221436,0.929565,-24.841307,-12.878417,-6.896972
838,0.249023,-0.226929,0.931885,-22.277830,-11.352538,-4.150391
849,0.244385,-0.237549,0.923706,-19.958496,-9.765625,-1.281738
860,0.239624,-0.245850,0.915405,-18.920898,-8.239746,-0.244141
871,0.244263,-0.245605,0.915527,-18.798828,-7.080078,-0.671387
883,0.241333,-0.248291,0.922241,-20.263670,-6.835937,0.122070
894,0.228271,-0.256958,0.927124,-22.277830,-5.187988,0.183105
905,0.220215,-0.249634,0.932373,-22.033689,-3.234863,1.159668
916,0.203735,-0.211304,0.949219,-19.104004,-2.136230,3.051758
928,0.198730,-0.203613,0.957031,-14.648437,-2.136230,4.455566
939,0.196655,-0.205322,0.964355,-9.765625,-3.051758,5.004883
950,0.194336,-0.203613,0.966797,-5.249023,-4.455566,5.310058
961,0.191895,-0.190552,0.962402,-1.159668,-5.554199,6.042480
973,0.188721,-0.174561,0.955566,8.605957,-6.225585,8.422852
984,0.186279,-0.167114,0.950806,12.329101,-6.774902,8.605957
995,0.186890,-0.173950,0.950928,13.366698,-8.605957,7.629394
1006,0.190552,-0.200928,0.960327,11.962890,-11.657714,5.859375
1018,0.195190,-0.197754,0.962402,9.277344,-14.770507,3.906250
1029,0.195557,-0.193604,0.963379,6.591796,-17.028809,2.197266
1040,0.188232,-0.204712,0.964844,4.089355,-18.615723,0.854492
1051,0.179688,-0.221313,0.966675,1.220703,-20.080564,-0.549316
1063,0.175293,-0.225708,0.968628,-5.004883,-24.963377,-1.831055
1074,0.170898,-0.221680,0.973389,-4.943848,-26.733397,-0.427246
1085,0.161987,-0.221558,0.983276,-2.929687,-25.878904,1.098633
1096,0.153442,-0.227783,0.995117,-0.427246,-22.827147,1.647949
1107,0.151978,-0.246704,1.011841,1.708984,-19.348145,1.220703
1119,0.153076,-0.255371,1.015137,2.563476,-17.578125,0.366211
1130,0.153442,-0.260254,1.019409,1.586914,-17.883301,-0.610352
1141,0.154053,-0.256958,1.027954,-1.525879,-18.859863,-1.342773
1152,0.151978,-0.252197,1.041260,-5.798339,-19.409180,-1.708984
1163,0.143677,-0.253296,1.058838,-12.512206,-20.263670,-1.342773
1175,0.132446,-0.255859,1.070801,-15.258788,-20.568846,-1.098633
1186,0.124268,-0.253784,1.069702,-17.761230,-20.385740,-0.976562
1197,0.118408,-0.250610,1.066895,-19.104004,-19.042969,-0.488281
1208,0.094116,-0.242676,1.082642,-18.188477,-15.441894,0.976562
1220,0.081543,-0.234375,1.076660,-16.174316,-9.094238,2.807617
1231,0.077881,-0.225342,1.058228,-14.404296,-1.464844,4.211426
1242,0.082397,-0.216309,1.036743,-11.291503,5.126953,4.821777
1253,0.092529,-0.211426,1.017090,-5.126953,9.521484,4.516602
1265,0.098022,-0.211548,1.000366,6.652832,13.305663,1.464844
1276,0.098022,-0.207275,0.983398,5.310058,14.221190,-0.427246
1287,0.104248,-0.195557,0.966919,0.122070,14.526366,-1.220703
1298,0.130249,-0.189453,0.931396,-4.577637,14.221190,-1.220703
1310,0.132690,-0.189087,0.916504,-6.835937,13.305663,-0.793457
1321,0.136108,-0.186768,0.902588,-8.422852,12.573241,-0.915527
1332,0.150879,-0.174683,0.891846,-8.605957,12.329101,-1.159668
1343,0.158447,-0.164917,0.895874,-6.164550,11.657714,0.183105
1355,0.160522,-0.170898,0.912354,0.366211,9.216309,3.845215
1366,0.161499,-0.185791,0.925903,0.427246,8.117676,3.967285
1377,0.166138,-0.191406,0.931519,-2.990722,6.774902,3.173828
1388,0.171021,-0.190796,0.933716,-8.789062,5.493164,2.258301
1399,0.176636,-0.160645,0.943359,-14.587401,4.638672,2.136230
1411,0.177368,-0.144165,0.949463,-17.456055,4.150391,2.990722
1422,0.172852,-0.142456,0.952515,-15.197753,3.784179,4.211426
1433,0.166016,-0.153687,0.953613,-8.422852,3.417969,5.004883
1444,0.163208,-0.170776,0.952515,-0.183105,2.990722,4.699707
1455,0.165283,-0.183838,0.950684,8.117676,1.037598,3.540039
1467,0.168701,-0.187256,0.951538,7.690429,-0.061035,4.150391
1478,0.169922,-0.186279,0.953857,6.164550,0.061035,5.615234
1489,0.167358,-0.183472,0.956543,4.089355,1.831055,7.263183
1500,0.163086,-0.171143,0.958008,2.258301,4.821777,8.361816
1512,0.167725,-0.167480,0.954346,1.770019,7.873535,8.728027
1523,0.174072,-0.170288,0.953979,2.014160,9.826660,8.239746
1534,0.179321,-0.168335,0.958008,2.075195,10.070800,7.446289
1545,0.182373,-0.163574,0.962769,2.258301,8.728027,6.713867
1556,0.180298,-0.165405,0.969360,4.211426,3.051758,5.920410
1568,0.174683,-0.172485,0.977783,5.432128,0.732422,5.798339
1579,0.169556,-0.177368,0.986816,6.347656,0.122070,5.859375
1590,0.166382,-0.176758,0.995728,7.568359,1.647949,6.286621
1601,0.160889,-0.171143,1.000244,9.216309,4.516602,6.652832
1613,0.156372,-0.184814,0.995972,9.948730,7.080078,6.164550
1624,0.155396,-0.200806,0.994263,7.995605,8.300781,4.638672
1635,0.159302,-0.200317,0.996826,3.417969,8.361816,2.624511
1646,0.161499,-0.189697,1.000000,-1.953125,7.751464,0.793457
1658,0.159668,-0.180786,1.003296,-7.995605,4.882812,-0.366211
1669,0.154541,-0.171265,1.007324,-6.896972,4.028320,0.427246
1680,0.147827,-0.165894,1.007812,-3.723144,3.784179,1.281738
1691,0.146362,-0.169067,1.001953,0.000000,3.784179,1.586914
1702,0.151733,-0.169312,1.008057,3.051758,3.723144,1.342773
1714,0.158691,-0.166382,1.016479,5.371093,4.150391,1.464844
1725,0.165649,-0.161499,1.019165,7.202148,5.493164,2.380371
1736,0.172485,-0.156372,1.013794,8.544922,7.324218,3.723144
1747,0.178711,-0.155640,1.004639,6.896972,10.070800,4.150391
1759,0.182983,-0.151733,0.994507,3.662109,10.620116,2.807617
1770,0.186157,-0.145020,0.984497,0.366211,9.887695,1.159668
1781,0.187744,-0.144043,0.977417,-2.014160,7.812500,-0.244141
1792,0.181274,-0.141602,0.976562,-3.173828,5.432128,-1.037598
1804,0.174194,-0.129395,0.978149,-3.112793,3.967285,-1.464844
1815,0.167969,-0.122314,0.982666,-1.708984,3.845215,-1.892090
1826,0.165527,-0.124023,0.986816,0.854492,5.187988,-2.136230
1837,0.169189,-0.130371,0.985107,3.662109,7.446289,-2.075195
1849,0.177002,-0.137939,0.977173,5.676269,10.437011,-2.258301
1860,0.186035,-0.143677,0.967651,4.394531,9.887695,-2.624511
1871,0.192871,-0.144653,0.960205,2.746582,8.544922,-2.990722
1882,0.200195,-0.132568,0.946899,1.708984,6.774902,-3.234863
1894,0.201050,-0.134033,0.944336,1.708984,5.004883,-3.417969
1905,0.200806,-0.142822,0.941650,2.197266,3.295898,-3.417969
1916,0.200439,-0.153442,0.937988,2.075195,1.892090,-3.295898
1927,0.199097,-0.160034,0.934814,0.610352,0.915527,-3.234863
1938,0.197266,-0.157349,0.934570,-1.647949,0.244141,-3.295898
1950,0.195312,-0.148804,0.937378,-3.540039,-0.427246,-3.662109
1961,0.192749,-0.142090,0.944458,-2.014160,-1.098633,-4.211426
1972,0.189209,-0.141846,0.954712,0.488281,-1.342773,-5.065917
1983,0.181396,-0.161255,0.965820,2.868652,-0.915527,-6.103515
1995,0.176880,-0.176636,0.970093,3.845215,-0.061035,-7.019042
2006,0.172852,-0.189697,0.974609,3.295898,1.098633,-7.507324
2017,0.170532,-0.193115,0.974609,2.075195,2.624511,-7.385253
2028,0.171387,-0.188110,0.969482,1.220703,4.272461,-6.835937
2039,0.174561,-0.183594,0.962769,1.831055,5.676269,-6.042480
2051,0.178345,-0.183228,0.957397,2.502441,5.920410,-5.859375
2062,0.184814,-0.180786,0.954834,3.601074,6.408691,-5.615234
2073,0.193604,-0.176514,0.953735,5.554199,6.896972,-5.310058
2084,0.204468,-0.182007,0.944092,8.056641,7.080078,-4.943848
2096,0.208618,-0.190430,0.937256,9.765625,6.835937,-4.882812
2107,0.213013,-0.198364,0.932251,9.948730,6.103515,-5.065917
2118,0.216553,-0.203369,0.931519,8.544922,4.699707,-5.310058
2129,0.218140,-0.205322,0.936279,6.103515,2.685547,-5.249023
2140,0.216431,-0.202148,0.943970,2.136230,-2.136230,-3.967285
2152,0.215210,-0.193604,0.949463,2.441406,-3.967285,-3.173828
2163,0.213623,-0.189819,0.952026,3.967285,-4.760742,-2.624511
2174,0.209229,-0.193481,0.953369,5.737304,-4.333496,-2.075195
2185,0.206787,-0.202271,0.959595,6.652832,-3.112793,-1.464844
2196,0.212769,-0.204346,0.965088,6.530761,-1.831055,-0.610352
2208,0.218018,-0.201416,0.970581,6.042480,-1.220703,0.427246
2219,0.219482,-0.197144,0.975708,5.676269,-1.464844,1.220703
2230,0.218628,-0.194092,0.979004,5.432128,-2.624511,1.464844
2241,0.215942,-0.192993,0.979980,4.699707,-5.615234,0.854492
2253,0.212769,-0.191772,0.980347,4.638672,-6.286621,0.671387
2264,0.210205,-0.190552,0.981323,4.821777,-5.859375,0.732422
2275,0.206665,-0.192993,0.990479,5.004883,-4.699707,0.915527
2286,0.204834,-0.197998,0.995605,4.333496,-3.356933,0.671387
2298,0.204956,-0.198975,0.996948,2.868652,-2.319336,0.122070
2309,0.206421,-0.195557,0.994019,1.403808,-1.708984,-0.366211
2320,0.206787,-0.193970,0.990479,0.976562,-1.464844,-0.549316
2331,0.205566,-0.193970,0.990967,1.647949,-1.342773,-0.427246
2342,0.204956,-0.193970,0.992920,4.394531,-0.549316,-0.122070
2354,0.204468,-0.196289,0.992920,4.455566,-0.244141,-0.305176
2365,0.203735,-0.199585,0.992554,3.051758,-0.488281,-0.610352
2376,0.206299,-0.197144,0.992798,0.915527,-0.976562,-0.854492
2387,0.207886,-0.194580,0.992065,-0.610352,-1.403808,-0.732422
2398,0.207642,-0.191650,0.991333,-1.037598,-1.464844,-0.305176
2410,0.207764,-0.187134,0.989258,-0.549316,-0.915527,0.244141
2421,0.209473,-0.183105,0.983887,0.427246,0.000000,0.549316
2432,0.211914,-0.182373,0.976562,1.953125,0.183105,0.305176
2443,0.214600,-0.181641,0.972046,2.563476,-0.915527,-0.305176
2455,0.215820,-0.177612,0.972046,3.356933,-2.563476,-1.220703
2466,0.217285,-0.175537,0.970947,4.272461,-4.394531,-2.197266
2477,0.217896,-0.180542,0.964722,5.065917,-6.225585,-3.173828
2488,0.219482,-0.182007,0.959229,5.920410,-8.178711,-3.967285
2500,0.224487,-0.183105,0.951050,7.141113,-10.681151,-4.455566
2511,0.228271,-0.181763,0.945801,8.666992,-14.099120,-4.882812
2522,0.228027,-0.180786,0.949707,10.498046,-18.920898,-5.371093
2533,0.226074,-0.183716,0.959229,14.160155,-32.226562,-7.019042
2545,0.225464,-0.187744,0.967041,15.380858,-39.001465,-7.873535
2556,0.228149,-0.192505,0.978271,16.296387,-44.982906,-8.178711
2567,0.232300,-0.201782,1.016846,17.761230,-49.438473,-7.629394
2578,0.233765,-0.208374,1.022827,20.446775,-52.551266,-6.408691
2590,0.235962,-0.217529,1.018433,23.986814,-55.725094,-5.065917
2601,0.242188,-0.227539,1.016602,26.977537,-60.119625,-3.967285
2612,0.248047,-0.246826,1.022461,27.526854,-65.429688,-2.685547
2623,0.249634,-0.267456,1.032837,17.578125,-72.570801,2.258301
2635,0.253296,-0.269287,1.041504,9.704590,-72.509766,4.455566
2646,0.261719,-0.250610,1.039673,2.014160,-72.143555,5.065917
2657,0.273682,-0.222900,1.024414,-4.394531,-74.523926,3.906250
2668,0.284424,-0.178589,0.980347,-8.728027,-81.603996,1.770019
2679,0.269897,-0.173096,0.968872,-11.047362,-92.834465,-0.976562
2691,0.240845,-0.173462,0.968384,-11.291503,-106.079094,-3.601074
2702,0.207031,-0.171997,0.979858,-9.765625,-118.957512,-5.615234
2713,0.174438,-0.171509,0.997925,-6.652832,-129.089355,-6.896972
2725,0.139648,-0.175781,1.010864,1.953125,-137.695312,-6.347656
2736,0.096069,-0.183716,1.006592,6.103515,-138.854980,-5.615234
2747,0.045532,-0.203003,0.989502,8.911133,-141.174316,-5.493164
2758,-0.052368,-0.262573,0.959717,8.728027,-144.470215,-5.187988
2770,-0.097656,-0.264038,0.952759,5.737304,-147.033691,-4.211426
2781,-0.140259,-0.258667,0.954346,1.586914,-147.705078,-2.441406
2792,-0.177979,-0.250000,0.953003,-0.915527,-145.507812,0.244141
2803,-0.210815,-0.244385,0.940918,-0.549316,-140.747070,2.929687
2815,-0.244629,-0.266724,0.925415,1.464844,-130.737305,4.760742
2826,-0.275513,-0.299316,0.915405,-0.549316,-126.403801,4.394531
2837,-0.292236,-0.304321,0.907715,-4.333496,-122.436516,4.455566
2848,-0.303345,-0.290161,0.895630,-7.446289,-119.384758,5.249023
2860,-0.346802,-0.267456,0.848389,-8.361816,-117.980949,5.981445
2871,-0.368408,-0.243774,0.823486,-6.652832,-118.957512,5.615234
2882,-0.382202,-0.213745,0.806152,-2.502441,-122.741692,4.150391
2893,-0.390503,-0.197632,0.795288,2.990722,-128.479004,2.258301
2905,-0.400146,-0.207275,0.783325,6.835937,-134.704590,0.305176
2916,-0.413330,-0.223267,0.766479,2.502441,-145.568848,-3.417969
2927,-0.425659,-0.217407,0.746460,-2.075195,-151.611328,-5.859375
2938,-0.439209,-0.191284,0.723877,-5.371093,-159.606934,-9.155273
2950,-0.518188,-0.178589,0.694092,-7.385253,-168.395981,-12.939452
2961,-0.576050,-0.184570,0.679321,-9.033203,-175.415024,-16.784668
2972,-0.630981,-0.182983,0.669556,-10.681151,-179.016098,-20.385740
2984,-0.672363,-0.174805,0.669312,-11.352538,-178.894028,-24.414061
2995,-0.706665,-0.172974,0.667236,-10.681151,-175.048813,-28.564451
3006,-0.740234,-0.173340,0.655273,-8.728027,-157.836914,-32.775879
3018,-0.770142,-0.167236,0.632446,-7.934570,-148.254395,-31.982420
3029,-0.798096,-0.153687,0.599854,-5.615234,-141.235352,-30.273436
3040,-0.845215,-0.152710,0.532349,-2.136230,-137.023926,-29.052732
3052,-0.862793,-0.161499,0.501099,0.305176,-134.094238,-29.235838
3063,-0.873901,-0.164429,0.476440,0.671387,-131.713867,-30.761717
3074,-0.885620,-0.160400,0.462402,-0.427246,-130.126953,-32.836914
3086,-0.899292,-0.153442,0.454590,-1.159668,-128.784180,-33.935547
3097,-0.916748,-0.147095,0.443359,1.770019,-122.619621,-29.907225
3108,-0.934448,-0.134277,0.430908,7.568359,-116.760246,-24.719236
3120,-0.945190,-0.124878,0.418335,16.357422,-109.252922,-18.859863
3131,-0.956909,-0.156860,0.370972,25.024412,-100.952141,-13.732909
3143,-0.962769,-0.173584,0.336670,30.334471,-93.505852,-10.620116
3154,-0.965576,-0.168701,0.309082,31.738279,-87.768547,-10.375976
3165,-0.967773,-0.161377,0.290405,30.761717,-83.496086,-13.061522
3177,-0.971558,-0.165527,0.272461,28.076170,-79.833984,-17.211914
3188,-0.971924,-0.177124,0.255005,18.737793,-73.059082,-22.766111
3199,-0.966919,-0.191895,0.241089,15.380858,-69.519043,-23.803709
3211,-0.954590,-0.189941,0.232422,14.892577,-65.551758,-24.047850
3222,-0.909302,-0.123657,0.232788,17.578125,-61.706539,-23.254393
3233,-0.883057,-0.096436,0.230103,21.850584,-59.020992,-20.874022
3245,-0.874756,-0.083618,0.217773,25.512693,-58.105465,-16.967773
3256,-0.893433,-0.084961,0.198975,28.320311,-58.471676,-13.366698
3268,-0.930298,-0.093872,0.181030,30.700682,-59.265133,-11.901855
3279,-0.974731,-0.107422,0.172485,31.249998,-57.983395,-17.822266
3290,-1.018188,-0.119141,0.175415,28.198240,-53.344723,-23.925779
3302,-1.049438,-0.124390,0.182495,23.803709,-45.410152,-30.395506
3313,-1.049316,-0.139893,0.177734,19.165039,-35.095215,-36.254883
3324,-1.019775,-0.137451,0.158569,14.709472,-24.230955,-40.405270
3336,-0.986206,-0.127686,0.131592,11.352538,-15.747069,-40.771481
3347,-0.963745,-0.124146,0.105469,10.925292,-10.925292,-36.682129
3359,-0.958008,-0.128174,0.083496,17.211914,-7.812500,-22.338865
3370,-0.963013,-0.137451,0.067017,19.714355,-6.591796,-16.174316
3381,-0.974487,-0.147217,0.058472,19.897461,-4.394531,-12.512206
3392,-0.985474,-0.147705,0.061646,17.944336,-1.098633,-11.108397
3404,-0.993774,-0.127686,0.091919,14.587401,3.540039,-10.742187
3415,-0.991821,-0.113647,0.098389,10.803222,9.338379,-10.314940
3426,-0.986328,-0.097046,0.096191,7.019042,15.502929,-9.460449
3437,-0.978638,-0.091553,0.090576,3.906250,20.812986,-8.605957
3449,-0.973267,-0.101685,0.084717,0.976562,24.780272,-8.544922
3460,-0.978760,-0.112183,0.081665,-7.446289,30.090330,-11.230468
3471,-0.999023,-0.118896,0.085327,-11.962890,33.752441,-13.732909
3482,-1.024414,-0.118774,0.096313,-16.296387,39.245605,-16.418457
3494,-1.031860,-0.083984,0.142944,-20.141600,46.264645,-18.554688
3505,-1.029175,-0.056885,0.181274,-22.766111,54.687496,-19.226074
3517,-1.024170,-0.020630,0.205322,-23.681639,65.185547,-18.066406
3528,-0.999634,0.004761,0.193970,-23.071287,75.622559,-15.808105
3539,-0.964844,0.011963,0.153320,-22.399900,81.115715,-13.366698
3550,-0.934204,0.009399,0.116089,-23.803709,68.786621,-10.131835
3562,-0.913818,0.000366,0.108887,-26.184080,57.006832,-10.375976
3573,-0.911987,-0.014404,0.134888,-28.625486,48.156734,-10.131835
3584,-0.932739,-0.040527,0.230469,-29.968260,45.654293,-7.446289
3596,-0.929688,-0.040771,0.269409,-28.503416,49.804684,-1.525879
3607,-0.922729,-0.051636,0.292114,-23.742674,58.227535,6.835937
3618,-0.922607,-0.063110,0.295898,-17.761230,69.274902,15.624999
3630,-0.918091,-0.052612,0.277954,-13.366698,80.932610,21.972654
3641,-0.908569,-0.029663,0.245117,-15.747069,90.454094,22.827147
3652,-0.917603,-0.007080,0.216309,-20.507811,84.655754,20.263670
3664,-0.933105,0.004395,0.227173,-25.146482,76.782227,17.272949
3675,-0.911133,-0.008667,0.373779,-28.869627,73.486328,14.953612
3686,-0.911255,-0.026978,0.439331,-30.822752,79.406738,14.221190
3698,-0.926392,-0.032227,0.472412,-29.541014,94.787590,15.258788
3709,-0.933960,-0.038940,0.498779,-24.536131,116.210930,17.272949
3720,-0.933594,-0.047974,0.528076,-18.005371,139.709473,19.897461
3732,-0.928223,-0.043823,0.537964,-8.300781,182.250961,24.536131
3743,-0.906250,-0.034668,0.526245,-5.065917,193.664536,24.597166
3754,-0.868774,-0.032837,0.515991,-2.868652,196.533188,23.437498
3766,-0.769653,-0.019043,0.567749,-1.647949,193.908676,21.911619
3777,-0.712524,0.000000,0.625488,0.122070,189.575180,20.874022
3788,-0.676147,-0.004150,0.674316,4.394531,187.072739,20.935057
3799,-0.668335,-0.026367,0.705078,11.108397,188.049301,22.033689
3811,-0.674194,-0.042236,0.718506,18.188477,192.321762,22.705076
3822,-0.675049,-0.053345,0.719238,27.709959,200.988754,18.249512
3833,-0.654175,-0.080078,0.722656,28.869627,199.279770,15.014647
3845,-0.608887,-0.116821,0.737549,27.770994,194.274887,13.549804
3856,-0.499634,-0.167603,0.777710,24.780272,188.415512,13.732909
3867,-0.446655,-0.165283,0.802490,21.545408,182.250961,14.526366
3879,-0.401123,-0.145386,0.830811,20.385740,175.292953,15.808105
3890,-0.368408,-0.113159,0.863281,22.827147,166.992172,18.005371
3901,-0.342896,-0.089233,0.897949,28.625486,158.325195,21.057127
3912,-0.315674,-0.076416,0.920776,46.630856,147.705078,27.404783
3924,-0.279297,-0.077148,0.924438,55.603024,145.446777,27.526854
3935,-0.229980,-0.108276,0.912231,60.852047,142.517090,24.719236
3946,-0.179565,-0.161743,0.894775,59.143063,138.000488,19.714355
3958,-0.118774,-0.275146,0.914917,48.706051,132.873535,14.160155
3969,-0.104126,-0.289429,0.940552,31.799314,129.516602,10.192870
3980,-0.085815,-0.268799,0.957520,14.526366,127.868645,8.300781
3991,-0.067017,-0.233032,0.961670,2.441406,125.610344,7.690429
4003,-0.051025,-0.185791,0.954468,0.915527,112.121574,6.713867
4014,-0.034424,-0.149414,0.940918,8.666992,101.745598,4.333496
4025,-0.016846,-0.162842,0.934814,15.319823,92.102043,1.647949
4036,-0.003540,-0.208984,0.945190,16.601562,86.425774,0.732422
4048,-0.011108,-0.247314,1.003052,13.671874,85.815422,1.647949
4059,-0.012573,-0.238525,1.024658,10.864257,89.416496,1.770019
4070,-0.007202,-0.233765,1.017700,11.413573,94.726555,0.244141
4081,0.007324,-0.239258,0.998779,14.709472,98.022453,-0.549316
4093,0.031860,-0.239746,0.976440,16.845703,97.656242,-0.915527
4104,0.069458,-0.235474,0.949951,16.052246,88.195793,-7.995605
4115,0.099609,-0.246460,0.936768,13.610839,80.383293,-10.314940
4127,0.114990,-0.260010,0.942993,10.559081,72.326660,-10.131835
4138,0.133057,-0.251099,0.982910,9.155273,63.537594,-8.361816
4149,0.133545,-0.240356,0.992554,10.375976,53.588863,-6.225585
4160,0.133301,-0.233643,0.985352,13.610839,43.151852,-5.371093
4172,0.126831,-0.236206,0.966919,17.883301,33.325195,-6.408691
4183,0.115601,-0.252930,0.945923,20.874022,24.780272,-9.521484
4194,0.105835,-0.276978,0.929443,19.653320,15.502929,-18.737793
4205,0.103516,-0.302246,0.916992,17.395020,15.624999,-21.484373
4217,0.115723,-0.314819,0.910522,16.723633,18.188477,-20.690916
4228,0.139648,-0.298096,0.907471,20.263670,21.423338,-16.845703
4239,0.196411,-0.264282,0.893433,27.770994,22.827147,-11.718749
4251,0.216187,-0.268066,0.901001,35.217285,20.629881,-7.202148
4262,0.231323,-0.272583,0.904785,39.306641,16.967773,-4.394531
4273,0.243042,-0.285034,0.898926,38.818359,14.404296,-4.089355
4284,0.248169,-0.296753,0.899048,33.874512,13.000487,-5.981445
4296,0.250732,-0.296509,0.906128,17.822266,12.695312,-11.779784
4307,0.257690,-0.299805,0.904541,7.263183,11.657714,-15.075683
4318,0.268921,-0.305054,0.899902,-4.333496,7.751464,-18.066406
4329,0.273560,-0.273071,0.924683,-12.329101,2.136230,-19.714355
4341,0.258789,-0.265625,0.933838,-13.671874,-3.356933,-19.897461
4352,0.236694,-0.276123,0.943115,-10.620116,-7.873535,-19.165039
4363,0.217285,-0.291748,0.955933,-7.202148,-10.559081,-17.761230
4374,0.209106,-0.303955,0.967773,-5.493164,-10.437011,-15.808105
4386,0.208130,-0.312012,0.977661,-7.324218,-5.859375,-11.352538
4397,0.212280,-0.304565,0.986450,-7.934570,-3.479004,-8.789062
4408,0.216919,-0.288940,0.994995,-6.713867,-1.159668,-6.103515
4419,0.217896,-0.278809,1.004150,-4.455566,0.549316,-4.028320
4431,0.231079,-0.267456,1.007202,-2.502441,0.732422,-2.868652
4442,0.237915,-0.259277,1.005737,-1.403808,-1.586914,-2.441406
4453,0.237061,-0.250000,1.008545,-0.366211,-6.103515,-2.075195
4464,0.226562,-0.244629,1.007202,1.708984,-11.169433,-1.220703
4476,0.210938,-0.239136,0.995117,5.249023,-15.502929,0.061035
4487,0.192993,-0.241943,0.982666,15.441894,-19.409180,2.319336
4498,0.167725,-0.267334,0.980469,16.967773,-17.333984,2.624511
4509,0.140015,-0.308594,0.984375,12.023925,-11.840819,1.770019
4521,0.110840,-0.329712,1.003296,2.990722,-4.394531,0.427246
4532,0.111816,-0.308472,1.008667,-5.187988,2.197266,-0.854492
4543,0.120361,-0.293335,1.008301,-10.681151,5.310058,-1.708984
4554,0.128784,-0.276733,1.002930,-14.038085,4.028320,-2.014160
4566,0.134277,-0.260864,0.989868,-14.770507,-0.427246,-1.647949
4577,0.132324,-0.256958,0.970825,-5.920410,-9.460449,0.732422
4588,0.121216,-0.261353,0.961060,0.061035,-10.314940,2.136230
4599,0.106201,-0.274536,0.970581,3.540039,-7.873535,3.112793
4611,0.096802,-0.289185,0.984009,4.455566,-3.540039,3.601074
4622,0.098633,-0.295044,0.985962,3.723144,0.366211,3.784179
4633,0.097778,-0.295166,0.986450,2.014160,2.746582,3.723144
4644,0.098999,-0.292603,0.983887,0.000000,3.906250,3.479004
4655,0.104858,-0.286133,0.978394,-2.075195,3.723144,2.746582
4667,0.110474,-0.273804,0.973755,-3.906250,1.892090,1.953125
4678,0.110718,-0.263550,0.972412,-4.760742,-4.516602,1.647949
4689,0.105347,-0.260010,0.975830,-3.356933,-6.530761,2.014160
4700,0.099976,-0.258423,0.979614,-0.976562,-6.408691,2.441406
4711,0.097290,-0.259399,0.984009,1.281738,-4.394531,2.685547
4723,0.094604,-0.274292,0.993042,2.380371,-1.281738,3.051758
4734,0.097900,-0.276855,0.986206,1.403808,1.647949,3.173828
4745,0.104614,-0.271118,0.979004,-1.159668,2.746582,2.807617
4756,0.110718,-0.259644,0.973267,-3.906250,1.953125,2.136230
4767,0.114258,-0.251099,0.965454,-5.676269,0.122070,1.647949
4779,0.115723,-0.246338,0.957886,-5.859375,-5.065917,1.708984
4790,0.115601,-0.242676,0.951782,-4.577637,-7.507324,1.953125
4801,0.110596,-0.247437,0.944946,-3.723144,-8.911133,2.014160
4812,0.099731,-0.254028,0.943237,-3.234863,-8.728027,1.953125
4823,0.084473,-0.251709,0.960327,-2.441406,-6.835937,1.647949
4835,0.079590,-0.254517,0.968384,-1.281738,-3.723144,1.220703
4846,0.077637,-0.257935,0.968262,-0.610352,-0.305176,0.915527
4857,0.077881,-0.259155,0.965210,-1.403808,2.014160,0.488281
4868,0.079346,-0.255981,0.964844,-3.234863,2.685547,-0.061035
4879,0.082520,-0.251465,0.964966,-3.601074,1.708984,-0.610352
4891,0.086548,-0.249634,0.961426,-1.037598,0.427246,-0.183105
4902,0.090332,-0.251709,0.954712,2.197266,-1.586914,0.427246
4913,0.087036,-0.258057,0.952148,4.943848,-3.540039,0.976562
4924,0.080811,-0.260864,0.957153,7.019042,-4.150391,1.403808
4935,0.076538,-0.265869,0.960205,8.178711,-2.807617,1.464844
4947,0.076660,-0.266724,0.962524,8.178711,-0.244141,1.220703
4958,0.081909,-0.263062,0.965210,7.263183,2.319336,0.610352
4969,0.091431,-0.261108,0.963867,5.981445,3.723144,-0.122070
4980,0.100098,-0.260864,0.958374,3.356933,2.807617,-0.488281
4991,0.105225,-0.257324,0.953979,2.197266,1.525879,-0.610352
5003,0.107544,-0.256348,0.949341,0.976562,0.183105,-0.915527
5014,0.109253,-0.249756,0.944214,0.061035,-1.098633,-1.403808
5025,0.106079,-0.244873,0.948975,0.183105,-2.014160,-1.831055
5036,0.101196,-0.246948,0.954102,1.281738,-2.258301,-2.258301
5047,0.099243,-0.254517,0.956421,2.502441,-1.647949,-2.807617
5059,0.099487,-0.262329,0.958740,3.417969,-0.305176,-3.112793
5070,0.099731,-0.266235,0.966553,3.967285,1.281738,-3.051758
5081,0.098755,-0.267334,0.976074,3.723144,2.014160,-2.502441
5092,0.098267,-0.274658,0.979126,2.075195,0.610352,-2.441406
5103,0.096069,-0.284790,0.979736,0.000000,-1.464844,-2.075195
5115,0.085693,-0.279541,0.981689,-1.098633,-3.417969,-1.098633
5126,0.080811,-0.278198,0.981445,-1.220703,-4.882812,0.061035
5137,0.076172,-0.277954,0.980713,-1.098633,-5.371093,0.671387
5148,0.077637,-0.276611,0.976196,-0.854492,-3.845215,0.427246
5159,0.083740,-0.277100,0.973877,-0.183105,-0.427246,-0.122070
5171,0.089355,-0.276123,0.975342,1.708984,6.774902,0.000000
5182,0.094727,-0.272339,0.974731,1.770019,8.178711,0.366211
5193,0.100952,-0.267578,0.967773,0.793457,7.446289,0.366211
5204,0.107178,-0.267212,0.958984,-0.610352,5.187988,0.244141
5215,0.110352,-0.260010,0.960327,-1.037598,2.380371,0.427246
5227,0.106201,-0.255127,0.961914,-0.061035,0.000000,0.976562
5238,0.101318,-0.255249,0.959351,1.403808,-1.770019,1.525879
5249,0.098999,-0.255737,0.957397,1.647949,-2.990722,1.342773
5260,0.097534,-0.253174,0.955688,0.671387,-4.028320,0.610352
5271,0.095337,-0.253906,0.950073,0.976562,-5.554199,-0.122070
5283,0.092529,-0.262695,0.945801,2.014160,-5.493164,0.122070
5294,0.089844,-0.274658,0.948120,2.380371,-4.150391,0.488281
5305,0.089355,-0.283813,0.952759,1.892090,-1.892090,0.732422
5316,0.095459,-0.286133,0.959351,0.305176,0.000000,0.732422
5328,0.097778,-0.273438,0.961670,-2.136230,0.610352,0.305176
5339,0.098755,-0.262207,0.963501,-4.394531,-0.549316,-0.488281
5350,0.096436,-0.257324,0.967651,-5.676269,-2.563476,-1.342773
5361,0.092285,-0.255493,0.972534,-5.798339,-4.028320,-2.075195
5373,0.088745,-0.253418,0.973267,-2.563476,-3.784179,-2.075195
5384,0.084351,-0.252930,0.969604,0.000000,-2.868652,-1.525879
5395,0.082275,-0.252319,0.966309,2.502441,-1.647949,-0.976562
5406,0.084595,-0.252563,0.963989,4.150391,-0.061035,-0.976562
5417,0.092651,-0.264771,0.956299,4.272461,1.586914,-1.342773
5429,0.097046,-0.262817,0.953613,2.746582,2.502441,-1.892090
5440,0.100098,-0.254028,0.950317,0.244141,2.258301,-2.624511
5451,0.102661,-0.249634,0.946655,-1.770019,0.793457,-3.479004
5462,0.101562,-0.252075,0.945068,-2.136230,-1.342773,-3.967285
5473,0.097046,-0.259277,0.946533,-0.366211,-4.760742,-4.150391
5485,0.091919,-0.268677,0.950562,0.000000,-5.187988,-4.150391
5496,0.087769,-0.275757,0.954956,0.183105,-4.882812,-3.784179
5507,0.082397,-0.275391,0.957397,0.427246,-4.394531,-3.112793
5518,0.078735,-0.271240,0.961914,1.037598,-4.150391,-2.258301
5529,0.076904,-0.268921,0.968628,1.953125,-4.028320,-1.647949
5541,0.077637,-0.273071,0.973389,2.746582,-3.723144,-1.281738
5552,0.078857,-0.275635,0.974609,2.807617,-3.051758,-1.037598
5563,0.080811,-0.273315,0.971680,1.892090,-2.258301,-0.915527
5574,0.083252,-0.266602,0.967773,-1.159668,-1.647949,-1.586914
5585,0.084717,-0.258179,0.967651,-1.647949,-1.464844,-2.014160
5597,0.084717,-0.254761,0.969360,-1.159668,-0.915527,-2.197266
5608,0.084106,-0.260376,0.972290,-0.122070,-0.427246,-2.197266
5619,0.081787,-0.263550,0.976074,0.915527,-0.244141,-2.014160
5630,0.078369,-0.263916,0.977417,2.136230,-0.183105,-1.525879
5642,0.075928,-0.267700,0.974121,3.234863,-0.061035,-1.037598
5653,0.075195,-0.275146,0.970459,3.356933,0.183105,-0.915527
5664,0.075806,-0.281128,0.972656,0.793457,1.098633,-1.037598
5675,0.077026,-0.278564,0.977905,-0.427246,2.014160,-0.732422
5686,0.078857,-0.273071,0.978638,-1.159668,2.624511,-0.427246
5698,0.080566,-0.271240,0.978516,-1.464844,2.685547,-0.244141
5709,0.087402,-0.268555,0.970947,-1.525879,2.441406,-0.305176
5720,0.091064,-0.265991,0.961548,-1.342773,1.647949,-0.122070
5731,0.092163,-0.264282,0.956665,-0.671387,0.427246,0.488281
5742,0.092041,-0.268799,0.956787,0.793457,-0.427246,1.220703
5754,0.090820,-0.279175,0.958496,2.380371,-0.366211,1.953125
5765,0.088745,-0.289795,0.959473,2.075195,1.770019,3.234863
5776,0.085083,-0.297119,0.960815,-0.305176,2.685547,3.540039
5787,0.080444,-0.294312,0.965332,-3.295898,2.807617,3.540039
5799,0.079102,-0.279663,0.973267,-5.126953,2.197266,3.417969
5810,0.082397,-0.248413,0.973755,-5.004883,0.793457,3.417969
5821,0.083374,-0.240479,0.968628,-2.990722,-1.159668,3.601074
5832,0.083374,-0.243286,0.965942,0.244141,-2.807617,3.967285
5843,0.084106,-0.251465,0.962524,3.540039,-3.295898,4.272461
5854,0.084961,-0.257568,0.959717,6.042480,-2.685547,4.516602
5866,0.085205,-0.264282,0.960571,6.164550,0.122070,3.906250
5877,0.085938,-0.270508,0.962646,3.051758,2.075195,2.746582
5888,0.089355,-0.270874,0.963257,-1.098633,3.540039,1.342773
5899,0.095703,-0.267456,0.962769,-4.638672,3.845215,0.122070
5910,0.106934,-0.254272,0.963135,-6.591796,2.929687,-0.549316
5922,0.107788,-0.246948,0.961182,-6.408691,1.220703,-0.732422
5933,0.105835,-0.245605,0.962036,-4.150391,-0.427246,-0.305176
5944,0.100830,-0.251953,0.967529,-0.549316,-1.342773,0.488281
5955,0.095459,-0.263550,0.968994,2.990722,-0.915527,1.464844
5966,0.093262,-0.272095,0.966675,4.333496,1.831055,2.563476
5978,0.093628,-0.275391,0.964844,2.197266,2.624511,2.380371
5989,0.095459,-0.271729,0.963257,-0.305176,2.685547,1.892090
6000,0.098145,-0.260986,0.963013,-2.075195,1.953125,1.525879
6011,0.096680,-0.248657,0.963745,-2.502441,0.976562,1.586914
6022,0.094849,-0.249146,0.961914,-1.464844,0.061035,2.014160
6034,0.092896,-0.252441,0.959961,0.427246,-0.549316,2.624511
6045,0.091187,-0.256958,0.957520,2.258301,-0.732422,3.295898
6056,0.091187,-0.261597,0.954102,3.234863,-0.549316,3.723144
6067,0.090698,-0.264526,0.952148,1.708984,-0.366211,3.662109
6078,0.087891,-0.263428,0.955200,0.305176,-0.061035,3.173828
6090,0.086670,-0.255981,0.959595,-0.549316,0.793457,2.380371
6101,0.090088,-0.245972,0.961060,-0.793457,1.708984,1.647949
6112,0.098145,-0.230469,0.966553,-0.671387,1.770019,0.976562
6123,0.101929,-0.229370,0.967041,-0.244141,0.732422,0.488281
6145,0.100098,-0.233154,0.960327,1.159668,-2.746582,-0.183105
6156,0.096313,-0.241089,0.957031,1.892090,-3.784179,-0.427246
6167,0.090454,-0.250610,0.958618,2.502441,-3.051758,-0.671387
6179,0.084961,-0.256348,0.961914,2.258301,-1.831055,-1.037598
6190,0.081665,-0.260132,0.965332,1.403808,-1.037598,-1.770019
6201,0.079590,-0.259521,0.970947,0.610352,-0.732422,-2.502441
6212,0.077881,-0.263306,0.972412,0.244141,-0.671387,-2.929687
6223,0.078369,-0.266602,0.972046,0.183105,-0.793457,-3.051758
6235,0.080078,-0.269043,0.972412,0.671387,-0.793457,-2.746582
6246,0.081543,-0.273804,0.973022,2.014160,-0.732422,-2.014160
6257,0.082031,-0.279663,0.974243,3.479004,-0.854492,-1.220703
6268,0.081177,-0.280151,0.977173,4.333496,-1.037598,-0.610352
6279,0.081909,-0.277222,0.979370,3.845215,-0.366211,-0.671387
6291,0.084961,-0.274292,0.978271,3.112793,0.732422,-0.671387
6302,0.087891,-0.268311,0.977051,2.563476,1.953125,-0.549316
6313,0.096680,-0.258667,0.974731,2.624511,3.112793,-0.427246
6324,0.100342,-0.260498,0.968262,2.990722,4.150391,-0.366211
6335,0.102417,-0.261353,0.961182,3.234863,4.699707,-0.366211
6347,0.102173,-0.261475,0.957397,3.356933,4.577637,-0.366211
6358,0.101562,-0.262817,0.958740,3.173828,4.028320,-0.610352
6369,0.102173,-0.262573,0.962158,2.624511,2.563476,-1.220703
6380,0.103027,-0.260864,0.962402,2.563476,1.708984,-1.342773
6392,0.103638,-0.260254,0.959717,2.929687,0.854492,-1.159668
6403,0.101807,-0.259277,0.958252,3.845215,0.549316,-0.732422
6414,0.097412,-0.246826,0.959106,5.554199,0.915527,-0.366211
6425,0.097778,-0.252197,0.960449,7.324218,1.647949,-0.122070
6436,0.099487,-0.262695,0.960083,7.995605,2.319336,-0.183105
6448,0.102417,-0.267456,0.959961,7.263183,2.868652,-0.610352
6459,0.103882,-0.270142,0.959473,5.493164,2.929687,-1.220703
6470,0.104736,-0.272217,0.957764,1.281738,1.342773,-2.136230
6481,0.104492,-0.273315,0.957397,-0.122070,0.549316,-2.258301
6492,0.101196,-0.273926,0.958740,-0.305176,0.488281,-2.197266
6504,0.096436,-0.273560,0.961670,0.549316,0.976562,-1.892090
6515,0.089722,-0.275513,0.970215,2.136230,1.464844,-1.220703
6526,0.086914,-0.279663,0.972046,3.356933,1.831055,-0.549316
6537,0.085693,-0.282837,0.972412,3.540039,2.014160,-0.244141
6548,0.088623,-0.284912,0.968506,2.563476,2.319336,-0.549316
6560,0.093750,-0.282715,0.962158,0.793457,2.746582,-1.159668
6571,0.098022,-0.277222,0.956055,-1.831055,2.563476,-1.403808
6582,0.100586,-0.272095,0.951660,-1.770019,1.403808,-0.610352
6593,0.101807,-0.267578,0.949463,-0.488281,-0.244141,0.732422
6604,0.101807,-0.265625,0.946777,1.342773,-1.831055,2.014160
6616,0.095093,-0.276245,0.943848,2.441406,-3.112793,2.563476
6627,0.093506,-0.279907,0.944336,1.770019,-3.540039,2.258301
6638,0.095215,-0.279541,0.942261,-0.244141,-2.929687,1.342773
6649,0.096680,-0.276123,0.942871,-2.441406,-1.770019,0.244141
6660,0.096802,-0.270264,0.949219,-3.906250,-0.732422,-0.610352
6672,0.098145,-0.262939,0.953491,-4.577637,0.610352,-1.342773
6683,0.100220,-0.255859,0.953003,-3.784179,0.488281,-1.464844
6694,0.100708,-0.255005,0.954102,-1.953125,0.061035,-1.281738
6705,0.101318,-0.254150,0.962646,0.915527,-0.244141,-0.793457
6717,0.102417,-0.258911,0.963867,3.967285,-0.610352,-0.244141
6728,0.102051,-0.268677,0.964600,6.286621,-1.342773,0.000000
6739,0.101562,-0.276123,0.967163,7.202148,-2.136230,-0.061035
6750,0.100464,-0.277710,0.970581,6.774902,-2.380371,-0.305176
6761,0.099121,-0.275635,0.972046,5.004883,-1.892090,-0.610352
6772,0.098999,-0.274048,0.973145,0.366211,0.732422,-1.831055
6784,0.098389,-0.273560,0.976318,-0.793457,2.441406,-2.136230
6795,0.096680,-0.271118,0.979004,-0.671387,4.028320,-2.258301
6806,0.099609,-0.271362,0.973267,0.427246,4.699707,-2.075195
6817,0.101318,-0.277710,0.970093,2.136230,4.333496,-1.525879
6828,0.101318,-0.281494,0.965820,4.089355,3.173828,-1.037598
6840,0.098877,-0.283813,0.963745,5.310058,1.953125,-0.915527
6851,0.096069,-0.285522,0.966797,5.310058,1.403808,-1.159668
6862,0.094727,-0.285278,0.968628,4.638672,2.258301,-1.220703
6873,0.094482,-0.286743,0.966675,3.479004,5.981445,-0.732422
6885,0.095947,-0.289062,0.964478,2.807617,7.324218,-0.671387
6896,0.098755,-0.287109,0.962646,2.441406,8.056641,-0.427246
6907,0.107300,-0.269775,0.962524,2.563476,8.178711,-0.183105
6918,0.112183,-0.263672,0.969116,3.234863,7.812500,0.061035
6929,0.117676,-0.262695,0.973267,4.455566,7.263183,0.488281
6941,0.120972,-0.267578,0.971069,5.981445,6.469726,0.854492
6952,0.120605,-0.274536,0.966431,6.713867,4.699707,0.854492
6963,0.120483,-0.277100,0.965332,3.601074,-0.976562,-0.671387
6974,0.122681,-0.274780,0.967773,1.831055,-2.746582,-1.525879
6985,0.123535,-0.269409,0.970215,1.403808,-2.990722,-1.953125
6997,0.122070,-0.266479,0.971313,1.953125,-1.892090,-1.953125
7008,0.123291,-0.273682,0.968506,2.624511,-0.061035,-1.953125
7019,0.128174,-0.273438,0.966431,2.685547,1.403808,-2.197266
7030,0.134399,-0.270630,0.969482,1.770019,1.403808,-2.746582
7042,0.138184,-0.272095,0.973267,0.122070,-0.305176,-3.540039
7053,0.138794,-0.274780,0.975342,-1.403808,-3.112793,-4.028320
7064,0.137207,-0.270874,0.978638,-0.610352,-9.399414,-3.417969
7075,0.136475,-0.265503,0.980713,2.868652,-11.840819,-2.746582
7086,0.138428,-0.266724,0.981201,7.385253,-13.610839,-1.892090
7098,0.140015,-0.273804,0.980103,11.413573,-15.014647,-0.732422
7109,0.143311,-0.292358,0.967163,13.366698,-16.906738,0.488281
7120,0.149292,-0.292847,0.966187,12.268065,-20.080564,1.464844
7131,0.157593,-0.285889,0.966431,9.338379,-24.108885,2.136230
7143,0.165527,-0.277710,0.963989,6.774902,-28.259275,2.502441
7154,0.171997,-0.268921,0.962524,5.676269,-32.714844,2.624511
7165,0.177490,-0.257202,0.961426,7.019042,-44.128414,1.770019
7176,0.184082,-0.241211,0.954590,8.178711,-52.368160,0.244141
7188,0.189575,-0.221924,0.941895,9.094238,-62.927242,-2.441406
7199,0.192261,-0.201660,0.927612,10.742187,-74.462891,-5.798339
7210,0.179565,-0.212280,0.932495,13.305663,-84.838860,-8.422852
7222,0.154663,-0.241455,0.948853,15.441894,-92.529289,-9.826660
7233,0.130127,-0.271118,0.973633,16.845703,-96.069328,-9.155273
7244,0.108643,-0.297974,0.994507,18.066406,-95.214836,-6.164550
7255,0.088257,-0.329468,1.008911,14.282226,-90.942375,0.305176
7266,0.071289,-0.351318,1.022583,7.873535,-93.078606,0.244141
7278,0.059937,-0.354004,1.033447,1.037598,-98.999016,-2.380371
7289,0.052368,-0.345947,1.037231,-4.028320,-108.398430,-6.103515
7300,0.028076,-0.335327,1.058472,-7.019042,-120.056145,-9.155273
7311,0.001465,-0.337402,1.076538,-8.728027,-130.859375,-10.620116
7323,-0.027832,-0.354370,1.086060,-9.826660,-137.451172,-9.887695
7334,-0.057129,-0.378540,1.096802,-11.596679,-138.122559,-6.103515
7345,-0.087158,-0.386475,1.096191,-13.854980,-131.958008,1.037598
7357,-0.113892,-0.374023,1.062378,-9.338379,-111.145012,15.197753
7368,-0.132080,-0.355103,1.003418,-2.746582,-108.093254,16.906738
7379,-0.145020,-0.345947,0.949341,1.647949,-112.976067,15.380858
7391,-0.188843,-0.368774,0.931030,1.220703,-122.375481,12.817382
7402,-0.213501,-0.361450,0.933472,-2.014160,-132.873535,11.474608
7413,-0.239624,-0.354004,0.927124,-5.493164,-143.432617,11.657714
7425,-0.272095,-0.362427,0.915771,-8.911133,-153.442383,12.756347
7436,-0.308472,-0.373413,0.906860,-13.000487,-160.644516,14.038085
7447,-0.348511,-0.375610,0.909546,-24.230955,-156.921387,16.784668
7459,-0.396118,-0.363892,0.912720,-27.404783,-144.409180,19.104004
7470,-0.443970,-0.346924,0.896973,-26.489256,-128.417969,21.789549
7481,-0.504517,-0.331543,0.844849,-22.521971,-112.670891,24.841307
7493,-0.522095,-0.325195,0.817993,-16.845703,-98.937981,28.015135
7504,-0.531982,-0.331787,0.780273,-10.742187,-88.439934,31.311033
7515,-0.541382,-0.338257,0.733276,-4.882812,-82.580559,35.156250
7527,-0.552124,-0.337891,0.685059,0.915527,-81.787102,38.574219
7538,-0.566895,-0.342163,0.644897,9.155273,-91.064445,37.780762
7549,-0.583740,-0.362915,0.624023,8.300781,-96.130363,33.935547
7560,-0.600830,-0.391479,0.625000,2.136230,-97.839348,29.052732
7572,-0.622925,-0.363770,0.627441,-6.652832,-95.214836,22.888182
7583,-0.621094,-0.322266,0.610596,-13.366698,-90.270988,15.136718
7594,-0.617554,-0.296631,0.586304,-15.014647,-85.571281,6.713867
7606,-0.611694,-0.291504,0.561157,-12.634276,-83.190910,-0.976562
7617,-0.605347,-0.291992,0.535278,-9.216309,-84.106438,-6.958007
7628,-0.601196,-0.286743,0.505981,-5.249023,-94.238274,-12.695312
7639,-0.600830,-0.273926,0.473267,-4.211426,-102.233879,-12.939452
7651,-0.601685,-0.257202,0.449097,-2.624511,-111.572258,-12.573241
7662,-0.619019,-0.233765,0.434204,0.244141,-120.971672,-12.512206
7673,-0.638428,-0.231323,0.427856,4.333496,-128.845215,-13.366698
7685,-0.663940,-0.232300,0.420288,7.873535,-134.521484,-15.136718
7696,-0.695557,-0.234863,0.415405,9.643555,-137.695312,-17.150879
7708,-0.729126,-0.245850,0.412354,10.009766,-137.756348,-19.165039
7719,-0.766968,-0.257080,0.405884,6.774902,-130.249023,-22.644041
7730,-0.807007,-0.251221,0.397827,5.676269,-123.779289,-24.780272
7742,-0.837036,-0.240601,0.392212,5.920410,-116.394035,-27.282713
7753,-0.880371,-0.242432,0.372314,6.469726,-109.191887,-29.541014
7764,-0.910767,-0.238770,0.356934,6.469726,-102.539055,-31.433104
7776,-0.940186,-0.232544,0.342773,6.652832,-95.947258,-32.958984
7787,-0.959961,-0.230347,0.332642,7.629394,-89.538567,-34.301758
7798,-0.963623,-0.231812,0.328491,8.972168,-83.557121,-35.034180
7809,-0.958984,-0.236816,0.322266,9.704590,-70.983887,-34.484863
7821,-0.956299,-0.246704,0.305420,8.728027,-63.598629,-33.752441
7832,-0.952881,-0.252563,0.284302,7.629394,-56.213375,-32.958984
7843,-0.930664,-0.224609,0.260620,7.202148,-49.621578,-32.043457
7855,-0.927612,-0.204834,0.249023,7.507324,-44.494625,-30.639647
7866,-0.935425,-0.190308,0.234741,8.605957,-41.503902,-28.686522
7877,-0.949341,-0.187744,0.219849,10.559081,-39.916992,-26.733397
7888,-0.965088,-0.196167,0.207031,12.817382,-38.696289,-25.085447
7900,-0.975464,-0.204468,0.200317,14.343261,-33.569336,-23.498533
7911,-0.979736,-0.210449,0.196777,12.756347,-29.357908,-23.986814
7922,-0.982788,-0.219971,0.192627,9.643555,-24.475096,-24.963377
7934,-0.984985,-0.229492,0.191040,5.615234,-18.737793,-25.878904
7945,-0.978027,-0.219971,0.191406,1.831055,-12.390136,-26.306150
7956,-0.971313,-0.203369,0.186401,-0.610352,-6.347656,-25.451658
7967,-0.967529,-0.187378,0.181396,-1.281738,-2.014160,-22.949217
7979,-0.966675,-0.176392,0.181763,-0.305176,0.061035,-19.165039
7990,-0.967773,-0.170166,0.189209,1.525879,0.244141,-14.465331
8001,-0.968384,-0.169189,0.199829,4.943848,0.732422,-4.028320
8012,-0.969604,-0.176025,0.206543,5.981445,3.723144,0.488281
8023,-0.974976,-0.190186,0.208130,6.164550,8.728027,3.417969
8035,-0.980835,-0.222900,0.207397,4.821777,15.136718,4.455566
8046,-0.985840,-0.234131,0.207153,1.281738,22.399900,3.540039
8057,-0.993408,-0.233765,0.207397,-3.845215,30.334471,1.220703
8068,-0.993530,-0.229004,0.208130,-9.338379,38.757324,-1.464844
8079,-0.984131,-0.225830,0.209839,-14.526366,46.752926,-3.112793
8091,-0.973511,-0.220215,0.211914,-22.338865,59.143063,0.976562
8102,-0.965698,-0.210083,0.217896,-22.827147,63.842770,5.981445
8113,-0.962402,-0.201416,0.231445,-20.812986,68.969727,11.108397
8125,-0.967285,-0.196289,0.249146,-17.944336,75.683594,15.014647
8136,-0.969604,-0.182861,0.295654,-15.747069,83.679192,17.517090
8147,-0.949585,-0.173462,0.318359,-15.075683,91.552727,19.836426
8158,-0.925049,-0.161865,0.322876,-15.441894,97.839348,22.399900
8170,-0.903076,-0.174561,0.316528,-15.624999,100.341789,23.864744
8181,-0.895020,-0.204102,0.311035,-16.418457,98.327629,23.742674
8192,-0.898926,-0.231323,0.329590,-23.559568,89.965813,23.132322
8204,-0.898682,-0.235962,0.380249,-26.306150,91.186516,24.963377
8215,-0.887939,-0.215576,0.447998,-24.719236,99.914543,28.198240
8226,-0.845947,-0.203369,0.524658,-18.981934,115.661613,32.897949
8238,-0.831543,-0.209717,0.514160,-11.596679,132.812500,39.184570
8249,-0.831909,-0.221924,0.507690,-4.089355,145.324707,45.898434
8260,-0.839844,-0.229980,0.518188,3.112793,152.465820,51.574703
8271,-0.849243,-0.239746,0.536865,9.582520,157.348633,54.504391
8283,-0.852173,-0.263428,0.559326,11.962890,166.076645,49.011227
8294,-0.839844,-0.292236,0.589600,5.676269,169.860825,41.748043
8305,-0.823853,-0.311401,0.622437,-3.112793,175.048813,33.386230
8316,-0.777954,-0.304199,0.685669,-10.681151,183.593735,25.451658
8328,-0.729736,-0.267212,0.705811,-14.709472,196.289047,19.592285
8339,-0.669067,-0.228394,0.708252,-14.648437,211.120590,16.418457
8351,-0.615967,-0.217651,0.673218,-12.634276,224.060043,16.296387
8362,-0.561157,-0.242432,0.622681,-12.573241,229.064926,17.761230
8373,-0.490112,-0.290039,0.606079,-26.611326,203.430161,15.563964
8385,-0.423340,-0.332886,0.639160,-39.184570,185.180649,11.535644
8396,-0.381226,-0.344604,0.698486,-51.269527,174.804672,7.019042
8407,-0.335449,-0.239868,0.832031,-57.678219,175.720200,3.295898
8419,-0.317139,-0.151489,0.868530,-52.551266,186.889633,2.136230
8430,-0.299561,-0.095947,0.868164,-34.729004,202.636703,4.882812
8441,-0.275269,-0.095825,0.820312,-10.009766,215.148911,10.864257
8453,-0.217285,-0.149048,0.752808,11.535644,214.477524,17.333984
8464,-0.129150,-0.224731,0.745728,10.375976,155.761719,18.798828
8475,-0.059937,-0.272339,0.817993,-6.408691,122.253410,12.573241
8486,-0.027100,-0.271240,0.909546,-20.324705,103.881828,6.042480
8498,-0.013184,-0.202393,0.962524,-24.963377,99.060051,2.014160
8509,0.004761,-0.168091,0.928955,-20.202635,99.487297,1.525879
8520,0.036743,-0.138916,0.882812,-10.559081,96.740715,3.417969
8532,0.069580,-0.132568,0.864990,-0.488281,85.815422,4.760742
8543,0.099731,-0.152466,0.870239,7.934570,68.115234,3.845215
8554,0.123413,-0.193115,0.880859,11.352538,30.639647,-3.173828
8565,0.134888,-0.245605,0.906006,3.356933,18.066406,-8.666992
8577,0.125732,-0.280273,0.943359,-4.150391,13.244628,-11.352538
8588,0.102417,-0.278809,0.971069,-5.798339,13.977050,-8.850098
8599,0.091919,-0.231934,0.971313,-4.821777,15.258788,-4.760742
8610,0.103271,-0.198853,0.981445,-3.845215,13.427733,-2.380371
8621,0.108765,-0.182617,1.004028,-2.380371,9.399414,-2.136230
8633,0.102539,-0.202881,1.020752,-1.098633,6.652832,-3.601074
8644,0.093018,-0.238037,1.034058,-3.356933,6.896972,-6.591796
8655,0.086670,-0.248779,1.052979,-18.188477,15.014647,-14.160155
8666,0.080688,-0.233521,1.067017,-19.958496,21.423338,-15.991210
8678,0.077026,-0.196411,1.062622,-14.221190,28.076170,-15.686034
8689,0.076538,-0.155151,1.005249,-3.723144,33.386230,-14.404296
8700,0.076294,-0.186768,0.987305,6.652832,35.827637,-13.061522
8711,0.075195,-0.233521,0.993652,12.756347,35.766602,-11.718749
8723,0.074829,-0.277588,0.999756,12.634276,35.888672,-10.498046
8734,0.076782,-0.285156,1.008667,5.920410,37.536621,-9.704590
8745,0.082886,-0.242798,1.031860,-3.112793,40.039062,-9.277344
8756,0.092896,-0.181274,1.060791,-0.915527,44.799801,-7.568359
8768,0.103394,-0.148560,1.072144,8.300781,46.630856,-7.263183
8779,0.117310,-0.161621,1.047852,11.779784,46.203609,-9.155273
8790,0.138916,-0.220215,1.004395,6.774902,41.809078,-13.488769
8801,0.140137,-0.240234,1.001587,-1.586914,35.949707,-18.554688
8813,0.136841,-0.249146,1.001587,-7.995605,32.531738,-21.850584
8824,0.129272,-0.238525,1.007324,-10.131835,32.775879,-21.423338
8835,0.124756,-0.216187,1.013672,-7.751464,36.254883,-17.883301
8846,0.128784,-0.191772,1.017456,9.399414,48.950191,-8.972168
8858,0.143555,-0.175903,1.009644,20.324705,55.175777,-6.286621
8869,0.171875,-0.189697,0.981689,25.085447,56.152340,-5.920410
8880,0.227051,-0.252319,0.968384,21.118162,49.621578,-7.873535
8891,0.239746,-0.272339,0.973511,11.596679,39.001465,-10.864257
8903,0.244751,-0.266235,0.968750,1.464844,29.113768,-13.427733
8914,0.245850,-0.235596,0.961060,-4.455566,22.155760,-14.648437
8925,0.246582,-0.202515,0.952881,-3.540039,18.615723,-14.343261
8936,0.245972,-0.176758,0.948486,11.840819,17.883301,-12.817382
8948,0.245361,-0.165894,0.952271,21.911619,19.165039,-12.634276
8959,0.251709,-0.184326,0.953613,28.015135,19.165039,-12.756347
8970,0.263428,-0.220459,0.954102,26.611326,15.502929,-13.366698
8982,0.270264,-0.263672,0.970093,19.531250,8.666992,-14.465331
8993,0.256470,-0.268677,0.969482,10.620116,1.281738,-15.075683
9004,0.236816,-0.258423,0.969604,3.173828,-3.845215,-14.831542
9015,0.218018,-0.246094,0.966187,-0.549316,-5.371093,-13.854980
9027,0.207031,-0.237305,0.956055,-0.854492,-3.784179,-12.756347
9038,0.205811,-0.234497,0.951416,4.699707,1.403808,-11.169433
9049,0.208252,-0.241943,0.958496,8.605957,3.601074,-10.131835
9060,0.209229,-0.255249,0.966064,12.023925,5.371093,-8.605957
9071,0.208252,-0.297241,0.953125,12.207030,5.615234,-7.324218
9083,0.204346,-0.301880,0.949097,7.934570,3.356933,-7.141113
9094,0.196411,-0.295410,0.950562,1.159668,-0.793457,-7.995605
9105,0.185059,-0.283936,0.954102,-4.516602,-4.821777,-8.972168
9116,0.171875,-0.272827,0.959839,-6.469726,-6.896972,-8.972168
9127,0.160522,-0.270264,0.963257,-4.638672,-6.225585,-7.568359
9139,0.156860,-0.273560,0.965210,2.258301,1.159668,-3.662109
9150,0.163696,-0.276855,0.962524,4.699707,3.784179,-2.014160
9161,0.176147,-0.279785,0.955078,4.882812,2.746582,-0.915527
9172,0.183472,-0.271118,0.962524,3.112793,-1.586914,-0.427246
9183,0.177124,-0.257202,0.966675,0.793457,-6.958007,-0.488281
9195,0.168701,-0.244629,0.970703,0.061035,-11.352538,-0.915527
9206,0.157471,-0.243896,0.974609,1.647949,-13.122558,-1.342773
9217,0.147461,-0.244873,0.976318,4.394531,-11.718749,-1.586914
9228,0.144531,-0.245483,0.977905,7.080078,-7.324218,-1.770019
9240,0.146118,-0.252563,0.984009,9.643555,6.164550,-1.586914
9251,0.151123,-0.260010,0.990723,8.117676,11.474608,-1.403808
9262,0.161011,-0.259766,0.989014,5.004883,13.366698,-1.647949
9273,0.177246,-0.257690,0.970947,1.159668,11.230468,-2.441406
9284,0.177246,-0.255981,0.961792,-2.380371,6.347656,-3.479004
9296,0.173462,-0.256470,0.950928,-4.150391,0.915527,-4.455566
9307,0.166260,-0.257202,0.945068,-3.234863,-2.929687,-4.821777
9318,0.157227,-0.256226,0.946533,0.488281,-4.150391,-4.150391
9329,0.151733,-0.264648,0.946411,10.681151,0.000000,-1.647949
9340,0.152588,-0.280396,0.946045,13.000487,3.540039,-1.159668
9352,0.156250,-0.288940,0.947632,12.939452,7.202148,-1.281738
9363,0.159546,-0.294067,0.948853,10.559081,10.070800,-2.136230
9374,0.171631,-0.286987,0.945068,6.225585,10.803222,-3.295898
9385,0.180786,-0.274658,0.942383,1.159668,8.117676,-4.455566
9396,0.184326,-0.268921,0.940430,-2.563476,2.624511,-5.065917
9408,0.179443,-0.264771,0.937500,-3.356933,-3.112793,-4.333496
9419,0.167480,-0.265137,0.938232,-1.220703,-6.713867,-2.929687
9430,0.154297,-0.276245,0.949707,6.408691,-4.394531,-0.854492
9441,0.148682,-0.292236,0.963379,8.178711,0.183105,-0.305176
9452,0.152832,-0.300659,0.967896,7.446289,4.211426,-0.244141
9464,0.161621,-0.298706,0.964355,5.493164,5.981445,-0.915527
9475,0.175537,-0.280396,0.962158,3.723144,5.432128,-2.014160
9486,0.175293,-0.275269,0.961060,2.563476,3.479004,-2.868652
9497,0.172363,-0.273560,0.959961,2.075195,1.281738,-3.112793
9508,0.168945,-0.270752,0.960815,2.197266,0.122070,-2.807617
9520,0.166626,-0.273315,0.957153,3.479004,0.488281,-2.014160
9531,0.167236,-0.276978,0.951294,5.615234,2.441406,-0.366211
9542,0.169312,-0.275635,0.954346,5.737304,3.479004,-0.366211
9553,0.169434,-0.275269,0.962036,5.920410,4.943848,-0.732422
9564,0.168701,-0.279175,0.964355,5.737304,6.530761,-1.159668
9576,0.172241,-0.295654,0.958862,4.455566,7.385253,-1.831055
9587,0.177246,-0.302124,0.953735,1.586914,6.835937,-2.685547
9598,0.181274,-0.299561,0.948730,-2.563476,4.699707,-3.479004
9609,0.182007,-0.288452,0.942993,-6.347656,1.647949,-3.784179
9620,0.179443,-0.274902,0.939087,-7.690429,-1.464844,-3.540039
9632,0.174683,-0.267578,0.941162,-0.732422,-3.234863,-1.525879
9643,0.169189,-0.273315,0.946411,4.272461,-1.220703,-0.366211
9654,0.162354,-0.286743,0.953369,7.690429,2.319336,0.488281
9665,0.158691,-0.299072,0.960327,8.361816,6.164550,0.854492
9676,0.171143,-0.304688,0.954346,5.920410,8.666992,0.854492
9688,0.182373,-0.293945,0.949097,1.464844,8.361816,0.549316
9699,0.189575,-0.283569,0.949341,-2.746582,5.126953,0.122070
9710,0.189453,-0.273560,0.947754,-5.310058,0.366211,-0.244141
9721,0.183960,-0.265015,0.940308,-5.493164,-4.150391,-0.488281
9732,0.175415,-0.260620,0.937256,-0.976562,-7.568359,-1.220703
9744,0.170898,-0.260620,0.936279,2.685547,-5.310058,-1.037598
9755,0.173706,-0.267090,0.928955,5.371093,-2.014160,-0.549316
9766,0.177368,-0.277588,0.925293,5.798339,0.671387,-0.305176
9777,0.182739,-0.284424,0.931519,3.784179,1.770019,-0.610352
9788,0.183350,-0.282104,0.934692,-0.305176,0.610352,-1.647949
9800,0.180664,-0.274658,0.937744,-5.004883,-2.380371,-2.868652
9811,0.175781,-0.265137,0.940308,-8.117676,-6.164550,-3.845215
9822,0.169800,-0.261597,0.942505,-8.789062,-9.643555,-4.516602
9833,0.163818,-0.267334,0.946045,-5.493164,-12.634276,-3.906250
9845,0.156616,-0.274780,0.952271,-2.929687,-11.108397,-2.685547
9856,0.150757,-0.277588,0.958618,-0.427246,-7.629394,-1.647949
9867,0.151123,-0.274048,0.967041,1.708984,-3.295898,-1.037598
9878,0.154419,-0.275391,0.970459,2.746582,0.427246,-0.854492
9889,0.157227,-0.278564,0.972168,2.319336,2.624511,-1.098633
9901,0.159912,-0.278687,0.969482,0.305176,3.173828,-1.770019
9912,0.162231,-0.276733,0.964233,-2.258301,2.502441,-2.685547
9923,0.162964,-0.278442,0.959229,-4.333496,1.037598,-3.356933
9934,0.162598,-0.279053,0.956543,-6.103515,-1.464844,-3.845215
9945,0.160645,-0.274902,0.955933,-4.882812,-1.892090,-3.601074
9957,0.156982,-0.270752,0.955566,-2.319336,-1.953125,-3.112793
9968,0.152710,-0.274048,0.958496,0.793457,-1.525879,-2.807617
9979,0.151367,-0.281982,0.961670,3.417969,-0.671387,-2.685547
9990,0.151733,-0.290771,0.962646,4.638672,0.488281,-2.258301
10002,0.153320,-0.297852,0.961914,3.967285,1.708984,-1.525879
10013,0.155640,-0.298828,0.959961,1.770019,2.563476,-0.793457
10024,0.160156,-0.294312,0.953247,-3.173828,2.441406,-0.122070
10035,0.164185,-0.286133,0.943970,-3.723144,1.342773,0.000000
10046,0.165283,-0.277344,0.941040,-2.075195,0.610352,0.244141
10058,0.163818,-0.274536,0.944458,1.159668,0.915527,0.793457
10069,0.164917,-0.280884,0.949951,4.150391,1.770019,1.403808
10080,0.167603,-0.282715,0.949951,5.126953,2.075195,1.586914
10091,0.169556,-0.282227,0.951172,4.089355,1.586914,1.281738
10103,0.170044,-0.278687,0.952393,1.953125,0.671387,0.854492
10114,0.170410,-0.274902,0.949585,0.000000,0.000000,0.610352
10125,0.171265,-0.269165,0.944092,-1.586914,-0.976562,0.427246
10136,0.172974,-0.260742,0.938232,-0.854492,-1.037598,0.122070
10147,0.175781,-0.255127,0.938843,0.915527,-0.366211,-0.183105
10159,0.179077,-0.256470,0.945923,3.234863,0.793457,-0.183105
10170,0.187988,-0.269043,0.949829,5.004883,1.281738,-0.061035
10181,0.187500,-0.277222,0.955566,5.493164,0.366211,-0.183105
10192,0.184692,-0.282227,0.962036,4.455566,-1.647949,-0.671387
10203,0.180664,-0.281372,0.964233,2.136230,-3.723144,-1.525879
10215,0.175537,-0.276489,0.964111,-0.671387,-5.554199,-2.380371
10226,0.171997,-0.276733,0.964966,-3.417969,-6.896972,-2.685547
10237,0.168091,-0.280151,0.969482,-2.624511,-5.065917,-1.525879
10248,0.162964,-0.280884,0.973877,-0.854492,-1.708984,-0.122070
10259,0.163696,-0.283569,0.981689,1.037598,1.953125,0.854492
10271,0.167725,-0.286987,0.978882,2.197266,5.126953,1.464844
10282,0.171021,-0.291748,0.974487,2.197266,6.958007,1.647949
10293,0.171875,-0.293701,0.971924,1.525879,7.324218,1.708984
10304,0.171631,-0.292969,0.967651,0.366211,6.347656,1.647949
10315,0.170654,-0.288574,0.964233,-1.342773,4.394531,1.647949
10327,0.169434,-0.281982,0.963257,-2.685547,0.610352,2.624511
10338,0.167114,-0.279541,0.962402,-1.708984,0.854492,3.479004
10349,0.164062,-0.278198,0.961914,-0.427246,2.563476,4.211426
10360,0.159058,-0.277466,0.959961,0.732422,5.004883,4.760742
10371,0.159424,-0.276489,0.958740,1.220703,7.141113,5.065917
10383,0.161865,-0.270630,0.957886,0.915527,8.422852,5.004883
10394,0.166260,-0.263062,0.956177,0.305176,8.361816,4.577637
10405,0.169800,-0.257935,0.953857,-0.427246,6.774902,3.967285
10416,0.171387,-0.253784,0.951782,-1.159668,4.455566,3.479004
10427,0.170044,-0.251831,0.948242,-1.098633,0.976562,3.295898
10439,0.166016,-0.252197,0.943604,-0.061035,0.732422,3.356933
10450,0.162598,-0.250366,0.942505,1.403808,1.708984,3.234863
10461,0.167236,-0.248291,0.946167,2.563476,3.295898,2.929687
10472,0.172485,-0.248169,0.945679,2.746582,4.516602,2.319336
10484,0.176636,-0.249878,0.944336,1.953125,4.516602,1.342773
10495,0.177979,-0.251831,0.939819,0.671387,3.356933,0.244141
10506,0.177124,-0.254395,0.932983,-0.610352,1.525879,-0.427246
10517,0.174561,-0.256226,0.930664,-2.929687,-0.976562,-0.976562
10529,0.172729,-0.255859,0.934326,-3.417969,-0.793457,-1.037598
10540,0.171387,-0.252319,0.941284,-2.929687,-0.061035,-0.976562
10551,0.171753,-0.246216,0.947632,-1.464844,0.854492,-1.037598
10562,0.177490,-0.248413,0.949829,0.183105,1.708984,-1.464844
10573,0.178101,-0.254272,0.948730,1.525879,2.319336,-2.197266
10585,0.175781,-0.262695,0.948364,2.197266,2.807617,-2.990722
10596,0.173218,-0.269897,0.947876,2.258301,3.173828,-3.479004
10607,0.172729,-0.273926,0.947754,1.831055,3.234863,-3.662109
10618,0.174683,-0.277588,0.947754,0.366211,1.770019,-3.906250
10629,0.178711,-0.280518,0.943726,-0.427246,0.671387,-3.967285
10641,0.181152,-0.281372,0.937988,-0.854492,-0.244141,-3.784179
10652,0.181152,-0.281250,0.933228,-0.427246,-0.671387,-3.112793
10663,0.184204,-0.279175,0.936035,0.671387,-0.427246,-2.136230
10674,0.188110,-0.277222,0.939453,1.953125,0.366211,-1.159668
10685,0.190918,-0.275879,0.939087,3.112793,0.915527,-0.305176
10697,0.191406,-0.277344,0.939697,3.540039,0.427246,0.000000
10708,0.189941,-0.280884,0.942505,3.051758,-0.732422,-0.244141
10719,0.188477,-0.280640,0.944824,-0.061035,-3.173828,-1.037598
10730,0.185425,-0.276001,0.945435,-1.220703,-4.455566,-1.159668
10741,0.180420,-0.272705,0.944580,-1.403808,-5.432128,-1.098633
10753,0.175293,-0.269897,0.946899,-0.488281,-5.310058,-0.976562
10764,0.172241,-0.269165,0.957275,1.098633,-3.662109,-0.854492
10775,0.175659,-0.270020,0.962646,2.685547,-1.037598,-0.732422
10786,0.178589,-0.271118,0.967773,3.723144,1.281738,-0.732422
10798,0.180420,-0.271118,0.967407,4.089355,2.380371,-0.915527
10809,0.182495,-0.271729,0.961914,4.028320,2.136230,-1.159668
10820,0.183472,-0.274658,0.956665,3.173828,0.549316,-1.159668
10831,0.183350,-0.276123,0.952881,2.685547,0.671387,-0.976562
10843,0.181763,-0.272827,0.951294,2.746582,1.403808,-0.671387
10854,0.175293,-0.267334,0.951294,3.540039,2.502441,-0.366211
10865,0.177734,-0.265991,0.949585,4.333496,3.845215,-0.183105
10876,0.184692,-0.262817,0.945923,4.638672,5.187988,-0.183105
10888,0.192383,-0.258911,0.940552,4.577637,5.920410,-0.366211
10899,0.197876,-0.256958,0.935669,4.455566,5.737304,-0.610352
10910,0.201294,-0.256226,0.933594,3.845215,4.516602,-2.014160
10921,0.202515,-0.258423,0.931274,3.417969,3.845215,-2.746582
10933,0.200439,-0.264771,0.927612,2.868652,2.807617,-3.417969
10944,0.196655,-0.271973,0.929199,2.075195,1.647949,-4.028320
10955,0.189331,-0.278076,0.951782,1.708984,0.915527,-4.211426
10966,0.184937,-0.280396,0.958374,2.258301,0.793457,-3.784179
10988,0.183716,-0.293335,0.962524,4.150391,1.159668,-2.380371
10999,0.184570,-0.299683,0.962402,4.028320,1.403808,-2.014160
11011,0.185425,-0.297363,0.959961,2.197266,1.037598,-1.281738
11022,0.185547,-0.290161,0.958252,2.014160,0.244141,-0.793457
11033,0.184692,-0.287476,0.958618,2.502441,-0.427246,-0.427246
11044,0.185181,-0.288574,0.958252,3.112793,-0.854492,-0.122070
11055,0.188477,-0.289307,0.957031,3.295898,-1.159668,0.000000
11067,0.188599,-0.287964,0.956421,3.051758,-1.403808,0.244141
11078,0.186523,-0.285767,0.957764,2.502441,-1.464844,0.610352
11089,0.183228,-0.284790,0.958862,1.831055,-1.098633,1.098633
11100,0.181396,-0.283936,0.958008,1.098633,-0.244141,1.525879
11111,0.181152,-0.281982,0.958008,-0.610352,0.976562,1.708984
11123,0.182739,-0.277954,0.957886,-0.793457,0.671387,1.525879
11134,0.186157,-0.272217,0.956421,-0.671387,-0.366211,1.159668
11145,0.188721,-0.269043,0.955200,-0.427246,-1.647949,0.671387
11156,0.189575,-0.270874,0.953735,-0.427246,-2.563476,0.244141
11168,0.186646,-0.271973,0.953857,-0.732422,-2.990722,-0.122070
11179,0.181885,-0.270508,0.953857,-1.281738,-3.051758,-0.488281
11190,0.177368,-0.266724,0.953369,-1.464844,-2.624511,-0.793457
11202,0.174927,-0.265625,0.951782,-0.915527,-1.770019,-0.915527
11213,0.173950,-0.268921,0.950928,1.708984,1.220703,-0.671387
11224,0.174316,-0.272705,0.950073,2.990722,2.685547,-0.305176
11235,0.176147,-0.275513,0.948608,3.417969,3.356933,-0.061035
11246,0.184814,-0.270874,0.943481,2.868652,2.990722,-0.305176
11258,0.189209,-0.269775,0.940430,1.647949,1.770019,-1.098633
11269,0.192505,-0.269775,0.938477,0.366211,0.244141,-1.953125
11280,0.197021,-0.267578,0.938354,-0.488281,-0.915527,-2.685547
11291,0.201660,-0.265991,0.938599,-0.671387,-1.342773,-3.295898
11303,0.204102,-0.267456,0.938599,0.610352,-0.366211,-3.540039
11314,0.204346,-0.270020,0.939087,1.342773,0.122070,-3.479004
11325,0.202515,-0.269531,0.941162,2.075195,0.549316,-3.356933
11336,0.199585,-0.266113,0.944458,3.234863,1.159668,-3.295898
11348,0.197876,-0.277344,0.948730,4.577637,2.014160,-3.295898
11359,0.197144,-0.290894,0.946167,5.126953,2.807617,-3.234863
11370,0.195557,-0.301392,0.943359,4.150391,3.112793,-3.234863
11381,0.193726,-0.302612,0.942749,1.708984,2.929687,-3.540039
11392,0.191528,-0.300293,0.942627,-0.549316,2.502441,-4.028320
11404,0.186035,-0.299927,0.945190,-1.708984,1.037598,-4.882812
11415,0.179932,-0.300171,0.946777,-1.098633,0.427246,-4.943848
11426,0.177246,-0.299072,0.945312,0.061035,0.122070,-4.394531
11437,0.176147,-0.297363,0.945068,1.831055,0.549316,-3.295898
11448,0.175415,-0.300293,0.950928,3.662109,1.464844,-1.770019
11460,0.177368,-0.302734,0.953247,5.126953,2.746582,-0.244141
11471,0.181641,-0.305176,0.954346,5.737304,3.845215,1.037598
11482,0.186523,-0.303101,0.954468,5.126953,4.394531,1.770019
11493,0.190308,-0.298462,0.952393,3.479004,4.211426,1.831055
11504,0.192993,-0.292603,0.950195,0.366211,1.831055,1.098633
11516,0.193726,-0.285645,0.949219,0.122070,0.244141,0.854492
11527,0.192993,-0.281250,0.948364,0.915527,-1.037598,0.793457
11538,0.191406,-0.281372,0.946533,2.197266,-1.708984,1.098633
11549,0.186279,-0.287354,0.943115,3.295898,-1.403808,1.647949
11560,0.184082,-0.289307,0.943359,3.845215,-0.488281,2.319336
11572,0.184448,-0.290649,0.947632,3.479004,0.549316,2.685547
11583,0.188477,-0.287964,0.953613,2.136230,0.976562,2.441406
11594,0.196045,-0.282471,0.959717,0.549316,0.549316,1.708984
11605,0.203491,-0.276245,0.964966,-1.464844,-1.892090,0.122070
11616,0.208374,-0.270752,0.967407,-1.220703,-2.685547,-0.061035
11628,0.213623,-0.270020,0.968872,-0.854492,-2.929687,0.000000
11639,0.219727,-0.272705,0.973999,-0.915527,-2.746582,-0.061035
11650,0.241211,-0.271118,0.987549,-1.159668,-2.624511,-0.305176
11661,0.257446,-0.265625,0.998657,-1.464844,-3.479004,-0.793457
11672,0.276611,-0.257690,1.012817,-1.220703,-5.859375,-1.281738
11684,0.296997,-0.253174,1.024048,-0.061035,-9.399414,-1.586914
11695,0.316040,-0.251953,1.033447,1.525879,-13.793944,-1.647949
11706,0.331909,-0.253784,1.044678,4.821777,-25.268553,-0.793457
11717,0.343872,-0.260742,1.055176,5.615234,-31.677244,-0.122070
11728,0.347900,-0.268677,1.060913,4.821777,-37.414551,0.061035
11740,0.339478,-0.292236,1.054932,2.563476,-42.114254,-0.732422
11751,0.334595,-0.308472,1.052490,-0.854492,-45.471188,-2.014160
11762,0.333496,-0.307983,1.046021,-5.249023,-47.546383,-2.868652
11773,0.335571,-0.286255,1.027222,-9.582520,-49.560543,-3.601074
11785,0.336304,-0.255493,1.002075,-12.145995,-54.199215,-4.577637
11796,0.339355,-0.229492,0.985229,-11.047362,-75.256348,-5.859375
11807,0.340820,-0.213867,0.980347,-10.009766,-89.477531,-6.408691
11819,0.330688,-0.211548,0.982544,-10.681151,-103.637688,-7.507324
11830,0.310059,-0.225342,0.984131,-13.793944,-115.661613,-8.911133
11841,0.247925,-0.269653,0.976807,-19.470215,-124.084465,-10.070800
11853,0.210449,-0.261719,0.971680,-27.404783,-128.234863,-10.192870
11864,0.181152,-0.219482,0.954102,-32.958984,-128.417969,-9.399414
11875,0.159424,-0.179321,0.926270,-31.799314,-127.746574,-8.850098
11887,0.138672,-0.155273,0.894409,-16.967773,-134.155273,-7.202148
11898,0.117432,-0.143311,0.872437,-9.460449,-141.174316,-6.042480
11909,0.082642,-0.160645,0.862793,-7.019042,-148.254395,-6.164550
11921,0.032227,-0.210327,0.859985,-11.352538,-154.479980,-7.324218
11932,-0.083496,-0.279297,0.887695,-21.179197,-158.813477,-8.605957
11943,-0.145752,-0.272705,0.893555,-31.738279,-160.034180,-10.009766
11955,-0.192261,-0.242310,0.889648,-37.231445,-158.447266,-11.230468
11966,-0.219727,-0.211426,0.871460,-34.423828,-155.334473,-11.535644
11977,-0.240723,-0.197754,0.843628,-11.596679,-151.916504,-6.469726
11989,-0.267822,-0.201050,0.814209,0.671387,-153.564453,-1.953125
12000,-0.304443,-0.214111,0.789062,10.009766,-157.043457,2.868652
12011,-0.345825,-0.244385,0.779785,15.014647,-160.400391,7.263183
12023,-0.429443,-0.308716,0.779663,15.441894,-161.315903,9.948730
12034,-0.463867,-0.316162,0.772827,11.840819,-160.156250,9.399414
12045,-0.495850,-0.317017,0.762939,4.882812,-158.752441,5.187988
12057,-0.528564,-0.305420,0.755737,-3.601074,-157.409668,-1.159668
12068,-0.559937,-0.281006,0.752563,-16.357422,-151.489258,-10.864257
12079,-0.585693,-0.256226,0.748535,-17.211914,-146.606445,-11.901855
12091,-0.602295,-0.233887,0.733521,-13.916015,-141.662598,-10.925292
12102,-0.612549,-0.214966,0.703613,-7.568359,-139.099121,-9.338379
12113,-0.641479,-0.206665,0.620483,-0.305176,-140.319824,-7.873535
12125,-0.681641,-0.219727,0.579346,5.554199,-144.714355,-6.591796
12136,-0.729614,-0.237061,0.550537,8.972168,-150.268555,-5.676269
12147,-0.769287,-0.247314,0.537842,9.704590,-155.395508,-5.676269
12159,-0.796021,-0.248047,0.538086,4.882812,-161.132797,-8.117676
12170,-0.813354,-0.243774,0.542114,1.403808,-159.423828,-10.009766
12181,-0.831055,-0.236694,0.540527,-1.708984,-154.357910,-11.962890
12193,-0.853394,-0.226440,0.526611,-3.479004,-147.338867,-13.366698
12204,-0.877686,-0.193970,0.486816,-2.929687,-140.258789,-13.854980
12215,-0.877930,-0.201660,0.464233,-0.244141,-133.850098,-13.122558
12227,-0.878052,-0.221436,0.435913,2.929687,-128.295898,-10.986327
12238,-0.878418,-0.237427,0.407471,5.187988,-123.352043,-8.117676
12249,-0.883179,-0.245239,0.383179,6.347656,-114.868156,-3.417969
12261,-0.897095,-0.244141,0.362061,6.042480,-111.267082,-0.732422
12272,-0.915283,-0.234863,0.341919,6.042480,-108.520500,2.563476
12283,-0.931519,-0.217896,0.328979,7.202148,-106.384270,5.249023
12294,-0.933716,-0.184814,0.346313,9.216309,-103.759758,6.530761
12306,-0.926758,-0.178223,0.351685,10.742187,-99.365227,6.591796
12317,-0.923828,-0.170166,0.342896,11.108397,-92.834465,5.798339
12328,-0.921143,-0.164429,0.324707,11.047362,-85.083000,3.967285
12339,-0.918213,-0.158081,0.302246,10.986327,-77.453613,1.342773
12351,-0.920288,-0.158691,0.280518,10.314940,-64.575195,-4.760742
12362,-0.929321,-0.172607,0.258423,9.155273,-59.570309,-7.141113
12373,-0.941528,-0.184570,0.234863,7.629394,-55.541988,-9.338379
12385,-0.953857,-0.174683,0.215454,6.896972,-51.940914,-11.779784
12396,-0.949585,-0.169434,0.216309,7.141113,-47.729488,-14.404296
12407,-0.945801,-0.162720,0.210571,7.629394,-42.297359,-16.723633
12418,-0.949219,-0.157959,0.193726,7.812500,-36.254883,-18.554688
12430,-0.962402,-0.161499,0.174927,7.690429,-30.700682,-20.263670
12441,-0.978882,-0.169312,0.166138,5.432128,-20.019531,-23.803709
12452,-0.990723,-0.172974,0.164062,3.540039,-12.878417,-25.329588
12464,-0.999390,-0.174683,0.153809,1.953125,-5.187988,-25.695799
12475,-1.010010,-0.174438,0.125366,0.854492,1.586914,-24.536131
12486,-1.009888,-0.161743,0.128052,0.366211,7.019042,-22.033689
12498,-1.012207,-0.150269,0.133667,0.671387,11.962890,-18.798828
12509,-1.021729,-0.144897,0.138306,1.708984,17.456055,-15.014647
12520,-1.034424,-0.144531,0.142700,2.929687,23.620604,-10.803222
12531,-1.043457,-0.148071,0.145508,4.028320,38.085938,-2.258301
12542,-1.043823,-0.156250,0.145630,2.624511,45.349117,1.342773
12554,-1.035522,-0.171875,0.146606,-0.427246,52.246090,4.455566
12565,-1.023804,-0.185913,0.152344,-4.394531,59.265133,7.080078
12576,-0.987915,-0.189697,0.182373,-8.056641,66.101074,8.972168
12587,-0.968872,-0.181030,0.201416,-10.925292,72.692871,10.314940
12599,-0.948486,-0.145874,0.221802,-12.268065,78.857422,11.596679
12610,-0.922363,-0.102173,0.252197,-10.742187,83.740227,12.756347
12621,-0.897339,-0.074219,0.290771,-6.469726,86.730949,13.732909
12633,-0.881958,-0.064331,0.320801,0.610352,89.721672,14.160155
12644,-0.873535,-0.073975,0.334839,0.610352,88.500969,12.878417
12655,-0.868042,-0.102783,0.341553,-1.953125,85.266106,10.986327
12666,-0.878662,-0.168213,0.338257,-6.164550,81.176750,8.361816
12678,-0.888062,-0.179688,0.348633,-9.521484,77.026367,4.943848
12689,-0.891479,-0.184937,0.381958,-11.291503,73.913574,1.525879
12700,-0.893799,-0.190552,0.427734,-12.329101,73.486328,-0.244141
12712,-0.896851,-0.193604,0.467651,-13.183593,77.453613,0.183105
12723,-0.898560,-0.200928,0.489746,-13.610839,96.374504,2.502441
12734,-0.897949,-0.212769,0.491699,-14.587401,106.323235,2.075195
12745,-0.891479,-0.230713,0.481689,-17.333984,112.853996,0.610352
12757,-0.851196,-0.228882,0.481323,-21.301268,115.112297,-1.159668
12768,-0.817871,-0.192139,0.506348,-24.414061,113.708488,-2.868652
12780,-0.794678,-0.164185,0.547729,-25.024412,110.412590,-3.662109
12791,-0.790894,-0.146118,0.592896,-23.315428,108.764641,-2.685547
12802,-0.795166,-0.129272,0.628784,-19.531250,111.816399,-0.061035
12814,-0.794800,-0.130615,0.648682,-6.652832,132.934570,6.225585
12825,-0.785645,-0.156128,0.653442,-0.793457,147.888184,8.666992
12836,-0.770996,-0.185791,0.647705,1.892090,162.963852,10.253905
12847,-0.724609,-0.209229,0.619995,2.197266,175.659164,11.169433
12859,-0.686646,-0.206665,0.612427,1.892090,183.959946,12.695312
12870,-0.634521,-0.192505,0.619385,2.197266,187.255844,15.319823
12881,-0.581665,-0.182495,0.637817,3.723144,186.767563,18.066406
12893,-0.543945,-0.182007,0.660156,5.554199,184.265121,19.958496
12904,-0.520630,-0.180420,0.686768,5.187988,180.969223,19.287109
12915,-0.506836,-0.177124,0.720337,2.563476,183.044418,16.357422
12926,-0.492188,-0.180786,0.754150,-1.037598,187.622055,12.390136
12938,-0.416626,-0.200073,0.803223,-5.737304,192.932114,8.483887
12949,-0.368164,-0.198975,0.823853,-10.620116,195.922836,5.737304
12960,-0.320435,-0.175903,0.841431,-12.695312,194.824203,5.187988
12972,-0.277832,-0.151733,0.850220,-9.582520,189.819321,6.469726
12983,-0.241089,-0.149414,0.853882,-2.258301,181.213364,8.850098
12994,-0.211426,-0.161621,0.857300,10.742187,157.653809,14.709472
13006,-0.186157,-0.179688,0.865356,11.230468,147.705078,16.113281
13017,-0.157471,-0.187744,0.879028,9.460449,141.235352,15.991210
13028,-0.120728,-0.172974,0.897827,8.666992,137.145996,14.709472
13040,-0.039795,-0.096924,0.928223,12.084960,132.873535,12.512206
13051,-0.005859,-0.079712,0.938110,20.324705,126.464836,9.094238
13062,0.021973,-0.092407,0.944946,30.578611,118.225090,4.638672
13074,0.038330,-0.138916,0.947754,38.879395,109.191887,0.366211
13085,0.037964,-0.202026,0.952759,37.719727,98.266594,-3.295898
13096,0.025635,-0.245239,0.953979,30.273436,99.121086,-3.356933
13107,0.018311,-0.268066,0.940918,21.972654,101.867668,-3.967285
13119,0.031616,-0.282837,0.926514,13.122558,103.881828,-4.943848
13130,0.099121,-0.263184,0.934814,4.638672,103.271477,-5.920410
13141,0.127075,-0.237793,0.961060,0.183105,99.365227,-6.408691
13153,0.146606,-0.227905,0.980225,1.708984,93.627922,-6.835937
13164,0.158203,-0.225830,0.978638,7.324218,88.500969,-7.568359
13175,0.172119,-0.227661,0.972168,12.817382,84.045403,-6.530761
13186,0.191284,-0.241211,0.968018,14.587401,75.622559,-4.394531
13197,0.210449,-0.250488,0.967896,13.305663,72.875977,-6.164550
13209,0.224976,-0.241943,0.972290,11.962890,70.983887,-7.324218
13220,0.241211,-0.236816,0.973877,12.145995,68.420410,-8.300781
13231,0.251831,-0.266479,0.960327,13.854980,63.354488,-9.765625
13242,0.260010,-0.304932,0.949219,13.793944,55.297848,-10.742187
13254,0.267212,-0.325073,0.947876,9.643555,46.691891,-10.925292
13265,0.274292,-0.321533,0.940796,1.892090,40.527340,-10.498046
13276,0.272217,-0.298828,0.918335,-10.314940,37.414551,-6.958007
13287,0.271484,-0.268066,0.900269,-10.314940,37.292480,-5.065917
13299,0.282349,-0.238892,0.900024,-6.469726,36.437988,-3.723144
13310,0.293213,-0.215454,0.911499,-0.488281,34.606934,-2.929687
13321,0.315918,-0.224365,0.945190,4.455566,31.799314,-3.295898
13332,0.330444,-0.247437,0.944580,5.859375,27.893064,-4.516602
13354,0.332886,-0.244263,0.942871,-1.342773,15.624999,-6.164550
13366,0.327271,-0.218994,0.936401,-2.807617,9.582520,-7.019042
13377,0.318115,-0.222778,0.929199,3.906250,1.647949,-8.789062
13388,0.301880,-0.251709,0.928345,5.310058,0.976562,-8.422852
13399,0.288574,-0.274536,0.928955,3.967285,2.685547,-7.690429
13411,0.289307,-0.277832,0.927368,1.464844,4.577637,-7.324218
13422,0.313110,-0.248657,0.929321,-0.671387,4.455566,-7.202148
13433,0.326172,-0.234863,0.934204,-2.563476,0.793457,-7.385253
13444,0.327148,-0.234131,0.943481,-5.493164,-6.469726,-7.995605
13456,0.315430,-0.233887,0.949097,-10.070800,-14.831542,-9.216309
13467,0.300659,-0.219849,0.944946,-15.136718,-21.118162,-10.864257
13478,0.290649,-0.199463,0.945312,-15.258788,-23.803709,-13.488769
13490,0.286011,-0.187378,0.957275,-7.812500,-20.263670,-12.512206
13501,0.284912,-0.197021,0.962524,0.122070,-15.502929,-10.070800
13512,0.288452,-0.230347,0.948730,5.371093,-12.023925,-7.446289
13524,0.290405,-0.233643,0.952515,8.422852,-10.864257,-5.432128
13535,0.289429,-0.244019,0.960083,10.070800,-11.291503,-4.577637
13546,0.284668,-0.253662,0.964355,9.399414,-12.878417,-4.699707
13558,0.278809,-0.261841,0.967285,6.347656,-15.502929,-5.493164
13569,0.270996,-0.271729,0.971191,-4.150391,-21.728514,-7.263183
13580,0.261841,-0.269775,0.977417,-8.483887,-24.047850,-7.629394
13591,0.253662,-0.248901,0.986572,-8.972168,-25.146482,-7.141113
13603,0.236572,-0.201050,0.995850,-4.882812,-24.658201,-5.737304
13614,0.226562,-0.197266,0.998535,1.892090,-22.949217,-4.089355
13625,0.219482,-0.208374,1.003174,8.056641,-20.080564,-3.051758
13637,0.218262,-0.229126,1.004517,11.657714,-15.991210,-2.807617
13648,0.222778,-0.248047,1.002808,11.718749,-11.718749,-2.929687
13659,0.228394,-0.257935,0.999268,0.061035,-7.202148,-4.821777
13670,0.230469,-0.260376,0.998901,-8.605957,-7.385253,-6.896972
13682,0.228882,-0.251953,1.003906,-14.282226,-8.178711,-8.789062
13693,0.224854,-0.234009,1.008423,-13.671874,-8.789062,-9.704590
13704,0.198730,-0.221436,0.992188,-6.774902,-8.972168,-9.460449
13715,0.181763,-0.232300,0.981323,3.662109,-8.361816,-8.544922
13727,0.170776,-0.258179,0.979370,14.099120,-7.080078,-7.507324
13738,0.164429,-0.296143,0.987183,21.118162,-4.821777,-6.530761
13749,0.163574,-0.325317,0.993774,22.155760,-1.525879,-5.371093
13760,0.169434,-0.334106,0.995483,7.385253,4.455566,-2.868652
13772,0.179199,-0.323975,0.997681,-2.197266,5.371093,-1.342773
13783,0.186279,-0.304443,0.996948,-9.155273,4.943848,-0.122070
13794,0.190796,-0.242920,0.966187,-11.840819,3.662109,0.000000
13805,0.192871,-0.228882,0.963745,-8.972168,2.014160,-0.427246
13816,0.189453,-0.239136,0.964111,-2.380371,1.159668,-0.366211
13828,0.182739,-0.251587,0.954712,4.211426,1.403808,0.183105
13839,0.180176,-0.258911,0.950317,8.728027,2.380371,0.488281
13850,0.182129,-0.270264,0.958984,11.718749,5.737304,0.610352
13861,0.185547,-0.282715,0.968506,8.666992,7.141113,1.220703
13872,0.187134,-0.280029,0.968994,3.601074,7.080078,1.708984
13884,0.188599,-0.263672,0.960449,-0.732422,5.249023,1.647949
13895,0.192017,-0.249878,0.951782,-3.479004,2.075195,1.159668
13906,0.186279,-0.245361,0.950073,-5.126953,-1.586914,0.488281
13917,0.173950,-0.232544,0.940552,-5.981445,-4.455566,-0.244141
13928,0.162720,-0.220581,0.938721,-4.516602,-5.004883,-0.976562
13940,0.159180,-0.229126,0.953247,0.488281,-2.014160,-1.342773
13951,0.164429,-0.250610,0.969238,10.070800,8.972168,-0.122070
13962,0.173096,-0.266724,0.973389,8.972168,11.596679,-0.061035
13973,0.181763,-0.269287,0.964355,5.249023,11.169433,-0.793457
13984,0.189331,-0.261597,0.953247,1.525879,8.972168,-1.831055
13996,0.197144,-0.250366,0.944824,-0.671387,6.164550,-2.502441
14007,0.193481,-0.246338,0.944824,-0.854492,3.234863,-2.807617
14018,0.186523,-0.245972,0.941040,1.037598,0.549316,-2.807617
14029,0.180420,-0.255615,0.940674,4.089355,-1.098633,-2.502441
14040,0.178345,-0.270874,0.947510,6.408691,-1.220703,-1.953125
14052,0.179932,-0.278442,0.955322,5.065917,2.319336,-0.427246
14063,0.183105,-0.273315,0.959961,3.662109,4.455566,0.183105
14074,0.188232,-0.264282,0.964233,3.540039,6.103515,0.610352
14085,0.193970,-0.260132,0.969482,3.906250,6.835937,0.915527
14096,0.198486,-0.265991,0.966064,3.295898,6.469726,1.037598
14108,0.199341,-0.266602,0.962402,1.037598,4.821777,0.732422
14119,0.201660,-0.261230,0.959839,-1.770019,2.746582,0.000000
14130,0.202637,-0.250488,0.957886,-3.479004,1.037598,-0.793457
14141,0.201416,-0.243286,0.958740,-3.173828,0.061035,-1.586914
14152,0.198853,-0.242798,0.959595,2.380371,0.915527,-1.770019
14164,0.194580,-0.247559,0.954956,4.455566,2.319336,-1.342773
14175,0.191162,-0.255859,0.952393,4.882812,3.784179,-1.098633
14186,0.190186,-0.267090,0.956543,3.479004,5.004883,-0.793457
14197,0.197021,-0.269165,0.952393,0.610352,5.432128,-0.610352
14209,0.198975,-0.266113,0.946533,-2.380371,4.821777,-0.610352
14220,0.196777,-0.267578,0.943237,-4.394531,3.784179,-0.671387
14231,0.192871,-0.265625,0.940918,-5.065917,3.051758,-0.610352
14242,0.190674,-0.262329,0.936401,-4.150391,2.563476,-0.732422
14254,0.191650,-0.261963,0.934082,0.793457,1.220703,-1.464844
14265,0.193726,-0.264160,0.935181,3.479004,0.976562,-1.098633
14276,0.194458,-0.267334,0.934570,5.249023,0.976562,-0.366211
14287,0.192261,-0.274902,0.938232,5.554199,0.976562,0.244141
14298,0.194214,-0.275269,0.938232,4.211426,0.793457,0.549316
14310,0.197754,-0.274048,0.938354,2.075195,0.244141,0.854492
14321,0.199829,-0.269775,0.937988,0.122070,-0.915527,1.281738
14332,0.201050,-0.262085,0.938354,-1.037598,-2.441406,1.525879
14343,0.202148,-0.255005,0.943115,-1.159668,-3.417969,0.976562
14355,0.202759,-0.250122,0.950562,-0.732422,-2.258301,0.610352
14366,0.204712,-0.248291,0.954712,-0.610352,-0.976562,0.183105
14377,0.207764,-0.246216,0.956543,-0.671387,-0.244141,-0.305176
14388,0.207031,-0.242065,0.961914,-0.122070,0.122070,-0.671387
14400,0.202148,-0.245850,0.961670,1.037598,0.427246,-0.915527
14411,0.197510,-0.256836,0.959717,2.441406,0.915527,-1.098633
14422,0.195068,-0.269653,0.956665,3.051758,1.525879,-1.342773
14433,0.196655,-0.274902,0.953003,2.441406,2.136230,-1.525879
14444,0.200439,-0.274292,0.952759,1.037598,2.441406,-1.098633
14456,0.203613,-0.273193,0.953613,1.708984,2.258301,-0.549316
14467,0.206543,-0.274048,0.954102,2.441406,1.770019,-0.183105
14478,0.209229,-0.276611,0.955322,2.563476,1.037598,0.000000
14489,0.208740,-0.270996,0.954102,2.624511,0.488281,0.366211
14500,0.205688,-0.264526,0.953735,3.356933,0.122070,1.037598
14512,0.203857,-0.262207,0.956177,4.821777,-0.305176,1.586914
14523,0.208130,-0.259155,0.958374,6.103515,-0.915527,1.647949
14534,0.214722,-0.250732,0.957520,6.286621,-1.770019,1.037598
14545,0.218384,-0.239258,0.955566,6.835937,-3.845215,-1.037598
14556,0.216675,-0.230713,0.954224,9.094238,-4.394531,-1.953125
14568,0.211548,-0.229614,0.952148,11.840819,-4.394531,-2.685547
14579,0.205200,-0.245728,0.949707,12.329101,-3.845215,-2.990722
14590,0.185425,-0.299805,0.944336,8.422852,-2.502441,-2.746582
14601,0.181396,-0.297241,0.945679,1.708984,-0.732422,-1.953125
14613,0.181030,-0.281982,0.953369,-4.150391,0.671387,-0.915527
14624,0.182617,-0.263306,0.962280,-6.652832,1.342773,-0.122070
14635,0.184204,-0.251221,0.964233,-5.432128,1.403808,0.061035
14646,0.184814,-0.249390,0.960449,1.342773,0.549316,-1.342773
14658,0.186035,-0.253418,0.955933,3.723144,0.854492,-1.953125
14669,0.187988,-0.260620,0.950195,4.516602,1.953125,-2.014160
14680,0.185547,-0.274780,0.946655,3.845215,3.234863,-1.770019
14691,0.185669,-0.277832,0.947266,2.319336,4.638672,-1.525879
14702,0.188843,-0.275757,0.942871,0.793457,5.920410,-1.220703
14714,0.194458,-0.270264,0.935547,0.000000,6.469726,-0.915527
14725,0.201050,-0.265991,0.928101,-0.305176,5.981445,-0.793457
14736,0.205322,-0.264648,0.924805,-0.549316,4.699707,-0.915527
14747,0.208496,-0.266235,0.923584,-0.549316,1.098633,-1.342773
14758,0.209229,-0.268066,0.921997,-0.122070,-0.854492,-1.281738
14770,0.207275,-0.269775,0.922241,0.549316,-2.258301,-0.915527
14781,0.204712,-0.280884,0.930664,1.037598,-3.112793,-0.488281
14792,0.203125,-0.283203,0.939209,1.586914,-3.601074,-0.061035
14803,0.198608,-0.286865,0.945679,2.136230,-3.967285,0.305176
14814,0.194092,-0.290527,0.952637,2.014160,-4.089355,0.671387
14826,0.192993,-0.289062,0.960327,0.732422,-3.540039,0.793457
14837,0.195679,-0.283081,0.962646,-3.479004,-2.197266,0.793457
14848,0.198120,-0.273682,0.960083,-4.638672,-2.380371,0.915527
14859,0.198242,-0.264771,0.958008,-4.272461,-2.441406,0.976562
14870,0.197998,-0.259399,0.960083,-2.502441,-2.136230,0.976562
14882,0.197998,-0.248657,0.963745,0.366211,-1.281738,0.915527
14893,0.199097,-0.249146,0.959839,3.662109,-0.122070,0.915527
14904,0.199219,-0.258667,0.952271,5.859375,0.671387,0.732422
14915,0.199585,-0.266357,0.944092,5.737304,0.793457,0.122070
14927,0.200806,-0.269043,0.938477,3.723144,0.488281,-0.854492
14938,0.200684,-0.269775,0.934570,-1.708984,0.610352,-2.380371
14949,0.200439,-0.267334,0.931396,-3.295898,0.854492,-2.441406
14960,0.201294,-0.263428,0.929810,-3.234863,0.671387,-2.197266
14972,0.201904,-0.260864,0.928467,-1.770019,0.183105,-1.831055
14983,0.202637,-0.260620,0.932129,0.427246,-0.488281,-1.586914
14994,0.202759,-0.269775,0.937012,2.380371,-1.037598,-1.586914
15005,0.202637,-0.279785,0.938110,2.868652,-1.647949,-1.586914
15017,0.202881,-0.281006,0.940430,1.403808,-2.258301,-1.464844
15028,0.202637,-0.277344,0.944580,-0.366211,-2.685547,-1.159668
15039,0.200562,-0.274658,0.944824,-1.708984,-3.112793,-0.488281
15050,0.198853,-0.272217,0.945068,-1.770019,-3.173828,-0.488281
15062,0.199707,-0.271729,0.950317,-1.403808,-2.990722,-0.549316
15073,0.203735,-0.267700,0.963135,-0.671387,-2.746582,-0.305176
15084,0.201660,-0.266357,0.966431,0.488281,-2.502441,0.122070
15095,0.197510,-0.270508,0.969849,1.586914,-2.258301,0.305176
15107,0.194458,-0.275269,0.972656,2.075195,-1.770019,0.000000
15118,0.193481,-0.277588,0.972778,1.708984,-1.159668,-0.244141
15129,0.193115,-0.277832,0.970825,-0.244141,-0.732422,-0.244141
15140,0.192871,-0.276245,0.967163,-0.610352,-0.732422,-0.305176
15152,0.192871,-0.275024,0.961548,-0.488281,-0.732422,-0.244141
15163,0.191650,-0.276733,0.959106,-0.061035,-0.366211,0.061035
15174,0.193970,-0.278320,0.961304,0.732422,0.427246,0.671387
15185,0.198242,-0.277710,0.958252,1.220703,0.976562,1.464844
15197,0.200195,-0.273560,0.955322,0.793457,0.732422,2.136230
15208,0.199463,-0.266968,0.952026,-0.122070,0.122070,2.441406
15219,0.196899,-0.261475,0.949341,-0.854492,-0.305176,2.441406
15230,0.194458,-0.257324,0.949463,-1.220703,0.366211,2.380371
15241,0.194946,-0.255127,0.952759,-1.342773,0.976562,2.258301
15253,0.196777,-0.254517,0.953735,-1.647949,1.342773,1.953125
15264,0.197266,-0.251099,0.953125,-1.708984,1.708984,1.464844
15275,0.197754,-0.250610,0.949463,-0.915527,2.136230,1.037598
15286,0.199951,-0.251709,0.946411,0.244141,1.953125,0.732422
15298,0.201538,-0.254639,0.945557,0.915527,0.915527,0.366211
15309,0.200562,-0.257690,0.942993,1.037598,-0.732422,0.122070
15320,0.197754,-0.258057,0.940796,0.793457,-2.075195,0.000000
15331,0.194824,-0.257080,0.942749,0.122070,-2.014160,0.122070
15342,0.192505,-0.256958,0.946777,-0.244141,-1.098633,0.244141
15354,0.191040,-0.255981,0.948975,-0.244141,-0.122070,0.366211
15365,0.194702,-0.257568,0.950806,0.427246,0.671387,0.427246
15376,0.198120,-0.260010,0.949951,1.342773,0.915527,0.305176
15387,0.199951,-0.260376,0.949585,2.014160,0.427246,-0.122070
15399,0.198242,-0.262329,0.947998,2.197266,-0.427246,-0.610352
15410,0.194580,-0.263062,0.947510,1.892090,-1.220703,-0.915527
15421,0.191528,-0.260498,0.945923,1.342773,-0.915527,-0.671387
15432,0.189087,-0.260986,0.942871,1.464844,-0.244141,-0.549316
15443,0.188721,-0.264648,0.942505,1.464844,0.427246,-0.671387
15455,0.191772,-0.266846,0.942505,1.098633,0.671387,-0.976562
15466,0.196533,-0.260010,0.945312,0.549316,0.488281,-1.159668
15477,0.196167,-0.259399,0.945679,0.366211,0.061035,-1.037598
15488,0.194702,-0.260132,0.945435,0.427246,-0.244141,-0.793457
15499,0.193726,-0.260254,0.945923,0.732422,-0.488281,-0.610352
15511,0.194458,-0.261230,0.945679,1.159668,-0.671387,-0.549316
15522,0.196777,-0.262695,0.945190,0.549316,-1.953125,-1.281738
15533,0.199341,-0.260986,0.945801,-0.915527,-3.356933,-2.197266
15544,0.200562,-0.255127,0.950317,-1.708984,-4.516602,-2.990722
15556,0.196655,-0.250000,0.956177,-1.037598,-4.638672,-3.112793
15567,0.184082,-0.259521,0.965210,0.610352,-3.601074,-2.807617
15578,0.182617,-0.267822,0.967896,1.953125,-1.770019,-2.258301
15589,0.185425,-0.270752,0.969360,2.319336,0.305176,-1.647949
15600,0.190308,-0.268677,0.966187,2.258301,1.770019,-1.037598
15612,0.193359,-0.264404,0.963501,1.892090,2.014160,-0.610352
15623,0.193848,-0.261963,0.961304,1.525879,1.403808,-0.732422
15634,0.195190,-0.261230,0.957764,1.586914,1.586914,-1.037598
15645,0.195801,-0.259399,0.956543,1.770019,2.075195,-1.403808
15656,0.194336,-0.260010,0.952271,2.075195,2.441406,-1.586914
15668,0.192749,-0.262817,0.952759,2.258301,2.441406,-1.586914
15679,0.191406,-0.263794,0.952026,2.258301,2.441406,-1.281738
15690,0.191284,-0.263550,0.950317,2.502441,2.502441,-0.915527
15701,0.194092,-0.264160,0.947021,2.746582,2.258301,-0.732422
15713,0.197388,-0.264526,0.942993,2.807617,1.403808,-0.915527
15724,0.198975,-0.263916,0.940186,1.403808,-0.976562,-2.075195
15735,0.200195,-0.261597,0.939941,0.610352,-1.892090,-2.502441
15746,0.199951,-0.258057,0.941895,0.488281,-2.319336,-2.502441
15758,0.194214,-0.250610,0.945312,1.220703,-2.319336,-2.441406
15769,0.194214,-0.248779,0.944336,2.441406,-2.014160,-2.502441
15780,0.193726,-0.251709,0.943604,3.845215,-1.647949,-2.563476
15791,0.193481,-0.253418,0.944458,4.821777,-1.281738,-2.441406
15803,0.195068,-0.253296,0.946167,5.310058,-1.220703,-2.380371
15814,0.196533,-0.258301,0.950317,4.089355,-2.563476,-3.417969
15825,0.197021,-0.261963,0.954712,3.234863,-3.479004,-4.211426
15836,0.196777,-0.262085,0.956787,3.417969,-4.211426,-4.516602
15847,0.195557,-0.265015,0.959717,4.699707,-4.455566,-4.333496
15859,0.193481,-0.275757,0.967041,6.286621,-4.333496,-4.089355
15870,0.196167,-0.283569,0.974487,7.141113,-3.967285,-4.028320
15881,0.199707,-0.285767,0.981323,7.141113,-3.540039,-3.967285
15892,0.203003,-0.287720,0.986450,6.958007,-3.173828,-3.601074
15904,0.206543,-0.295044,0.991699,7.019042,-3.051758,-3.295898
15915,0.213501,-0.301880,0.996216,6.469726,-4.150391,-3.051758
15926,0.224121,-0.306152,1.000122,5.554199,-5.737304,-2.868652
15937,0.235718,-0.309448,1.002808,4.455566,-8.361816,-2.807617
15949,0.267578,-0.300903,1.021484,3.601074,-12.390136,-3.234863
15960,0.293701,-0.290649,1.032471,2.685547,-17.456055,-3.784179
15971,0.317749,-0.258545,1.036621,2.563476,-22.949217,-4.272461
15982,0.332275,-0.205444,1.039551,7.202148,-28.808592,-4.394531
15993,0.339844,-0.157227,1.026489,19.287109,-35.217285,-4.089355
16005,0.341675,-0.144531,0.986328,50.170895,-56.213375,-8.178711
16016,0.339600,-0.174438,0.928345,56.884762,-74.584961,-12.634276
16027,0.321411,-0.226562,0.883301,57.800289,-95.031731,-15.991210
16039,0.276611,-0.271362,0.865356,56.884762,-110.961906,-16.235352
16050,0.169556,-0.362305,0.945312,54.870602,-116.394035,-12.084960
16062,0.145630,-0.387329,0.984375,49.926754,-108.459465,-3.967285
16073,0.154907,-0.361694,0.981934,42.419430,-91.430656,4.577637
16084,0.172852,-0.328735,0.965088,33.691406,-75.012207,9.094238
16096,0.180054,-0.338013,0.957397,12.634276,-65.917969,3.295898
16107,0.175171,-0.383667,0.968262,-3.417969,-71.350098,-2.258301
16118,0.161865,-0.423828,0.980591,-21.972654,-80.139160,-7.690429
16130,0.146729,-0.435425,0.981812,-39.489746,-92.163078,-12.573241
16141,0.085327,-0.416870,1.022217,-52.673336,-104.187004,-14.404296
16152,0.039185,-0.386841,1.031006,-58.288570,-110.473625,-11.962890
16164,0.001587,-0.356201,1.007690,-54.931637,-110.290520,-6.713867
16175,-0.025024,-0.341064,0.970947,-44.250484,-108.154289,-1.037598
16186,-0.050659,-0.349365,0.954956,-24.414061,-111.145012,6.713867
16198,-0.071533,-0.363037,0.960571,-22.277830,-115.417473,7.568359
16209,-0.084839,-0.372803,0.962402,-24.841307,-121.093742,5.981445
16221,-0.101929,-0.386841,0.942383,-31.616209,-128.723145,3.234863
16232,-0.126465,-0.370972,0.921509,-40.100098,-136.840820,1.159668
16243,-0.153442,-0.339111,0.894531,-46.752926,-144.653320,0.366211
16255,-0.177246,-0.295898,0.875244,-47.607418,-152.282715,1.586914
16266,-0.205322,-0.262451,0.870361,-41.992184,-158.325195,5.126953
16277,-0.236694,-0.247437,0.869507,-23.681639,-161.010727,13.366698
16289,-0.266968,-0.244019,0.862671,-17.700195,-160.583496,14.404296
16300,-0.299072,-0.250244,0.857788,-16.967773,-161.376938,12.268065
16311,-0.384277,-0.248901,0.845947,-19.287109,-162.658676,7.812500
16323,-0.416504,-0.247070,0.825317,-21.850584,-164.062485,2.441406
16334,-0.441040,-0.244507,0.799072,-24.475096,-166.259750,-2.197266
16346,-0.463989,-0.231201,0.766357,-26.306150,-169.189438,-4.760742
16357,-0.489380,-0.223145,0.736572,-25.024412,-173.095688,-4.211426
16368,-0.534912,-0.237305,0.726929,-11.901855,-178.466782,10.498046
16380,-0.596069,-0.264648,0.729370,-1.342773,-171.386703,21.606443
16391,-0.644897,-0.291138,0.723022,8.422852,-157.836914,31.066893
16402,-0.687744,-0.316528,0.664307,14.160155,-142.639160,37.231445
16414,-0.693359,-0.287720,0.623901,14.953612,-130.981445,39.062500
16425,-0.695557,-0.234009,0.590088,13.183593,-125.427238,35.278320
16436,-0.694824,-0.202881,0.567505,11.474608,-126.342766,25.451658
16448,-0.696899,-0.218872,0.548950,4.821777,-137.634277,0.488281
16459,-0.703369,-0.245117,0.527344,-1.708984,-142.517090,-8.056641
16471,-0.709839,-0.256836,0.510376,-6.469726,-145.385742,-12.756347
16482,-0.716064,-0.262573,0.504395,-7.568359,-145.507812,-13.549804
16493,-0.726074,-0.260498,0.496338,-5.676269,-142.578125,-10.681151
16505,-0.731934,-0.229004,0.484253,-1.342773,-137.512207,-5.981445
16516,-0.734619,-0.196411,0.461060,5.737304,-132.019043,-2.136230
16527,-0.742554,-0.193726,0.422119,14.404296,-127.929680,-1.037598
16539,-0.766846,-0.212646,0.369995,24.047850,-126.586906,-7.568359
16550,-0.800659,-0.234497,0.319824,22.338865,-129.150391,-13.671874
16561,-0.827148,-0.254517,0.282471,17.517090,-132.812500,-19.592285
16573,-0.842407,-0.268555,0.259155,11.047362,-135.803223,-24.108885
16584,-0.864258,-0.266235,0.238037,5.126953,-136.840820,-26.977537
16595,-0.884888,-0.252319,0.226196,1.708984,-135.375977,-28.869627
16607,-0.909790,-0.243896,0.212036,1.708984,-131.835938,-30.273436
16618,-0.927612,-0.245117,0.197510,3.906250,-126.708977,-31.005857
16629,-0.937622,-0.243164,0.178101,7.934570,-112.121574,-28.869627
16641,-0.951294,-0.236328,0.154175,10.131835,-103.820793,-28.076170
16652,-0.973755,-0.239136,0.133179,11.779784,-96.130363,-28.442381
16664,-1.009155,-0.240967,0.106201,11.352538,-89.416496,-29.235838
16675,-1.021118,-0.230713,0.092651,9.338379,-83.923332,-28.930662
16686,-1.034790,-0.215820,0.082764,7.263183,-79.345703,-27.221678
16698,-1.043945,-0.200806,0.078491,6.408691,-74.890137,-24.963377
16709,-1.045898,-0.196045,0.073364,6.652832,-69.763184,-23.193357
16720,-1.043823,-0.203125,0.065674,6.774902,-55.908199,-22.094725
16732,-1.041016,-0.210327,0.058228,4.821777,-47.424313,-22.460936
16743,-1.041382,-0.212646,0.049561,2.014160,-38.330078,-23.071287
16754,-1.031738,-0.182983,0.038574,-0.183105,-29.602049,-23.315428
16766,-1.018555,-0.159180,0.036133,-1.220703,-22.033689,-23.132322
16777,-1.005859,-0.145508,0.030518,-1.525879,-16.662598,-22.644041
16788,-1.002930,-0.137695,0.024048,-2.014160,-13.488769,-22.460936
16800,-1.017212,-0.136719,0.023438,-2.624511,-11.413573,-22.827147
16811,-1.045410,-0.141724,0.031616,-3.601074,-2.624511,-24.047850
16822,-1.073120,-0.150146,0.043701,-4.272461,6.713867,-24.108885
16834,-1.089966,-0.157715,0.055664,-5.249023,18.798828,-23.925779
16845,-1.093140,-0.152588,0.071045,-6.530761,32.409668,-23.559568
16856,-1.079590,-0.148804,0.060669,-8.178711,45.715328,-22.949217
16868,-1.061646,-0.156982,0.050049,-10.559081,56.762691,-22.033689
16879,-1.048950,-0.168091,0.042236,-13.854980,65.673828,-20.629881
16890,-1.035278,-0.163818,0.039551,-17.028809,73.669434,-18.127441
16902,-1.013794,-0.146729,0.053955,-18.676758,87.951653,-9.460449
16913,-0.996948,-0.124023,0.075317,-16.784668,95.092766,-3.234863
16924,-0.989136,-0.095093,0.092896,-12.878417,102.600090,3.051758
16936,-0.938477,-0.077026,0.132690,-7.568359,110.595695,7.995605
16947,-0.914917,-0.091187,0.146240,-3.356933,119.079582,10.803222
16958,-0.893433,-0.106445,0.164185,-1.708984,127.197258,10.925292
16970,-0.861450,-0.113281,0.184570,-2.929687,134.765625,8.972168
16981,-0.816895,-0.098999,0.203003,-7.446289,140.319824,7.446289
16992,-0.765259,-0.075317,0.224854,-16.113281,136.169434,15.258788
17004,-0.727051,-0.054443,0.248535,-12.939452,128.540039,26.306150
17015,-0.717163,-0.042236,0.274170,-1.770019,120.666496,41.198727
17026,-0.752563,-0.022705,0.332397,15.869140,115.051262,56.884762
17038,-0.790283,-0.052002,0.355347,35.705566,112.609856,69.274902
17060,-0.897705,-0.197144,0.385864,61.462399,116.455070,76.965332
17071,-0.942505,-0.285889,0.398071,58.349606,121.337883,71.472168
17082,-0.950073,-0.348511,0.411987,20.935057,129.577637,46.386715
17094,-0.922485,-0.369873,0.435425,-4.882812,130.920410,33.081055
17105,-0.876099,-0.369263,0.473877,-27.954100,130.676270,23.620604
17117,-0.784668,-0.239624,0.554199,-42.297359,129.760742,19.348145
17128,-0.766357,-0.157104,0.604858,-42.663570,128.356934,19.897461
17139,-0.768066,-0.110962,0.662964,-27.893064,129.211426,23.925779
17151,-0.785767,-0.118774,0.711182,-2.868652,136.962891,28.564451
17162,-0.817261,-0.179932,0.730225,24.291990,154.541016,31.860350
17173,-0.843384,-0.268066,0.710938,54.077145,207.214340,32.592773
17185,-0.833740,-0.366577,0.675415,47.729488,229.064926,29.724119
17196,-0.786255,-0.452393,0.649658,30.273436,241.821274,25.878904
17207,-0.639160,-0.428345,0.664185,9.155273,244.201645,21.972654
17219,-0.568848,-0.361084,0.716187,-8.789062,236.022934,20.019531
17230,-0.523804,-0.275879,0.776978,-18.798828,220.825180,21.789549
17241,-0.494263,-0.205200,0.821167,-19.775391,204.345688,24.780272
17253,-0.462524,-0.176758,0.837402,-13.366698,190.734848,26.062010
17264,-0.420044,-0.193726,0.830322,6.896972,179.748520,22.583006
17275,-0.370972,-0.258057,0.822266,10.375976,182.128891,19.409180
17287,-0.326294,-0.346191,0.827637,3.845215,187.683090,16.845703
17298,-0.226318,-0.413574,0.843140,-10.375976,193.054184,15.319823
17310,-0.167236,-0.347168,0.835449,-24.353025,192.993149,14.648437
17321,-0.115112,-0.248047,0.828247,-30.029295,183.288559,14.221190
17332,-0.069702,-0.161377,0.829834,-24.108885,164.550766,13.183593
17344,-0.041016,-0.142456,0.846069,-9.826660,141.296387,11.047362
17355,-0.030762,-0.193481,0.878540,15.991210,106.018059,9.033203
17366,-0.026123,-0.265137,0.908691,17.639160,103.576653,11.169433
17378,-0.013916,-0.320190,0.918457,10.253905,109.436028,11.596679
17389,0.058594,-0.339600,0.899536,-1.464844,115.356438,7.934570
17400,0.091797,-0.322754,0.883423,-10.681151,113.525383,1.708984
17411,0.118530,-0.300903,0.881958,-13.671874,100.708000,-3.967285
17423,0.133545,-0.278564,0.891235,-12.268065,80.688469,-8.117676
17434,0.132935,-0.271851,0.905640,-8.544922,60.913082,-10.742187
17445,0.125977,-0.291626,0.928589,0.366211,43.273922,-5.187988
17457,0.126465,-0.314697,0.946411,-0.366211,46.813961,-1.586914
17468,0.139404,-0.310181,0.947754,-2.685547,52.856441,-0.793457
17479,0.166748,-0.274292,0.932495,-3.112793,55.969234,-2.380371
17490,0.177734,-0.279175,0.928833,-2.624511,53.894039,-5.737304
17501,0.185059,-0.285156,0.927979,-4.455566,47.546383,-9.765625
17513,0.184082,-0.292847,0.934082,-8.483887,39.794922,-13.671874
17524,0.183960,-0.311035,0.951050,-10.986327,34.362793,-15.930175
17535,0.193237,-0.324585,0.958252,-10.253905,38.024902,-10.742187
17547,0.207275,-0.308594,0.947388,-10.375976,42.602535,-7.141113
17558,0.221191,-0.270874,0.940918,-9.643555,45.227047,-5.737304
17569,0.242432,-0.236450,0.953003,-7.873535,45.227047,-5.981445
17580,0.259644,-0.226685,0.974365,-6.408691,43.273922,-7.141113
17591,0.257690,-0.231201,0.963379,-5.859375,40.771481,-9.277344
17603,0.254150,-0.238892,0.955811,-5.981445,38.574219,-11.962890
17614,0.248535,-0.259766,0.966064,-6.347656,37.353516,-13.244628
17625,0.242676,-0.278687,0.986694,-7.141113,38.452148,-11.535644
17636,0.239014,-0.285522,0.995239,-13.854980,46.997066,-5.126953
17648,0.251099,-0.284912,0.990112,-20.324705,50.842281,-4.821777
17659,0.280029,-0.271973,0.988037,-26.062010,51.879879,-5.859375
17670,0.339844,-0.237305,0.981445,-28.686522,49.255367,-6.774902
17682,0.347534,-0.232422,0.971313,-27.343748,43.090816,-6.958007
17693,0.340698,-0.238647,0.969238,-23.010252,35.278320,-6.530761
17704,0.327759,-0.244507,0.977539,-18.127441,28.991697,-5.615234
17715,0.314453,-0.240601,0.988892,-13.793944,26.733397,-4.089355
17727,0.305176,-0.234985,0.991821,-4.516602,31.860350,1.281738
17738,0.301636,-0.230957,0.983887,-0.061035,35.095215,3.723144
17749,0.309814,-0.222656,0.978760,3.356933,36.499023,4.394531
17760,0.329590,-0.212769,0.979126,5.249023,34.912109,3.173828
17771,0.363770,-0.226807,0.962402,5.187988,29.724119,0.610352
17783,0.366333,-0.238770,0.957642,2.868652,22.460936,-2.319336
17794,0.355957,-0.237915,0.950806,-0.549316,15.502929,-4.089355
17805,0.338501,-0.222412,0.941650,-2.441406,10.314940,-4.333496
17816,0.321167,-0.208862,0.933472,-1.098633,7.507324,-3.479004
17827,0.310303,-0.201904,0.925415,9.521484,9.887695,-0.549316
17839,0.310913,-0.200928,0.922119,15.258788,13.000487,-0.305176
17850,0.322266,-0.210327,0.924316,18.493652,15.075683,-1.342773
17861,0.337402,-0.220947,0.928955,17.944336,15.380858,-2.868652
17872,0.339478,-0.253906,0.929565,13.366698,14.465331,-3.784179
17884,0.333496,-0.266602,0.921387,5.310058,12.939452,-3.601074
17895,0.330566,-0.256226,0.920898,-3.540039,10.681151,-2.624511
17906,0.329224,-0.236694,0.916382,-9.765625,7.385253,-1.770019
17917,0.325195,-0.220215,0.904785,-12.084960,3.295898,-2.014160
17928,0.316040,-0.202759,0.896973,-7.446289,-3.540039,-6.958007
17940,0.307373,-0.188721,0.897339,-0.915527,-3.845215,-9.338379
17951,0.301636,-0.200073,0.910889,5.859375,-1.159668,-9.521484
17962,0.295654,-0.234009,0.934570,9.704590,4.089355,-7.324218
17973,0.305298,-0.275269,0.949951,9.216309,10.009766,-4.272461
17984,0.325073,-0.274536,0.935059,4.516602,13.061522,-2.319336
17996,0.341919,-0.260498,0.918823,-2.502441,10.864257,-1.953125
18007,0.343018,-0.242798,0.905884,-8.422852,3.784179,-2.990722
18018,0.324463,-0.233765,0.896851,-9.643555,-5.432128,-4.577637
18029,0.293579,-0.236694,0.895386,0.061035,-16.296387,-5.981445
18041,0.262939,-0.244507,0.908813,6.530761,-13.854980,-5.249023
18052,0.245361,-0.255371,0.928101,12.023925,-6.958007,-3.417969
18063,0.262085,-0.277832,0.935303,14.343261,0.976562,-0.854492
18074,0.280884,-0.275879,0.935181,12.329101,6.530761,1.403808
18085,0.299927,-0.269531,0.933960,6.713867,8.483887,2.380371
18097,0.313232,-0.261108,0.930786,-0.854492,6.958007,1.892090
18108,0.315674,-0.248657,0.927490,-8.178711,2.624511,0.549316
18119,0.306519,-0.234253,0.925293,-13.061522,-2.807617,-0.976562
18130,0.291870,-0.220947,0.928101,-10.559081,-9.033203,-2.624511
18142,0.277222,-0.211914,0.936157,-4.333496,-8.178711,-2.807617
18153,0.264526,-0.216431,0.943848,1.892090,-4.943848,-2.624511
18164,0.260010,-0.230713,0.954956,5.981445,-0.366211,-2.319336
18175,0.268555,-0.233521,0.958252,7.934570,4.394531,-2.075195
18186,0.281372,-0.243408,0.957275,8.300781,7.995605,-2.258301
18198,0.294312,-0.253296,0.951904,7.019042,9.155273,-2.685547
18209,0.301514,-0.257446,0.945557,3.540039,7.446289,-3.417969
18220,0.299561,-0.252075,0.941528,-6.469726,-0.427246,-5.737304
18231,0.289795,-0.237793,0.937500,-9.521484,-3.540039,-6.958007
18243,0.277710,-0.222900,0.937866,-9.277344,-4.516602,-7.751464
18254,0.268677,-0.213013,0.946411,-5.310058,-2.929687,-7.751464
18265,0.272095,-0.223877,0.945435,0.915527,0.244141,-6.896972
18276,0.280396,-0.239380,0.934448,6.958007,3.234863,-5.493164
18288,0.285156,-0.255249,0.924805,10.620116,5.187988,-3.845215
18299,0.287476,-0.267456,0.916748,10.986327,6.225585,-2.380371
18310,0.292358,-0.273315,0.913208,8.117676,6.469726,-1.525879
18321,0.300537,-0.273804,0.911987,-3.662109,4.516602,-1.342773
18333,0.307007,-0.269775,0.912476,-9.704590,2.380371,-1.220703
18344,0.307739,-0.254883,0.918091,-13.122558,0.610352,-0.732422
18355,0.304199,-0.221436,0.934692,-12.512206,0.122070,-0.122070
18366,0.305786,-0.209351,0.942505,-8.483887,0.793457,0.549316
18377,0.308960,-0.204102,0.948364,-2.136230,2.197266,1.098633
18389,0.312012,-0.215454,0.949585,4.516602,3.356933,1.281738
18400,0.314697,-0.239136,0.943115,8.728027,3.784179,1.037598
18411,0.315552,-0.257080,0.936157,8.789062,3.112793,0.366211
18422,0.312378,-0.263550,0.933716,0.793457,-1.281738,-1.159668
18434,0.305176,-0.261108,0.938354,-3.601074,-2.807617,-1.647949
18445,0.298828,-0.250488,0.949219,-5.981445,-2.685547,-1.831055
18456,0.298584,-0.225464,0.952271,-5.126953,-1.708984,-1.770019
18467,0.297363,-0.227661,0.946411,-1.464844,-0.976562,-1.586914
18478,0.293701,-0.233154,0.938843,3.112793,-0.549316,-1.281738
18490,0.290039,-0.238037,0.933594,7.080078,0.122070,-1.037598
18501,0.288696,-0.247437,0.934814,9.582520,1.403808,-0.793457
18512,0.289551,-0.259644,0.935059,6.469726,4.150391,0.122070
18523,0.291138,-0.262817,0.927612,1.464844,4.211426,0.061035
18534,0.293823,-0.254272,0.923950,-2.929687,3.234863,-0.305176
18546,0.297363,-0.243286,0.927979,-5.249023,2.258301,-0.610352
18557,0.301270,-0.218506,0.923828,-5.065917,1.464844,-0.854492
18568,0.304199,-0.216064,0.925537,-2.868652,0.610352,-1.281738
18579,0.306396,-0.225952,0.934448,0.427246,-0.488281,-1.892090
18591,0.302368,-0.236816,0.940552,3.723144,-1.953125,-2.319336
18602,0.291870,-0.245605,0.938965,6.164550,-3.112793,-2.197266
18613,0.284668,-0.256958,0.938843,7.080078,-1.831055,-0.549316
18624,0.287598,-0.267578,0.944824,4.943848,-0.305176,0.427246
18635,0.292480,-0.269287,0.952271,1.586914,0.610352,0.976562
18647,0.289062,-0.258911,0.952637,-1.220703,1.586914,1.098633
18658,0.286011,-0.240479,0.959473,-2.075195,3.723144,1.159668
18669,0.299561,-0.242798,0.964722,-1.647949,6.713867,1.525879
18680,0.309692,-0.246582,0.962891,-1.525879,8.972168,1.953125
18691,0.311890,-0.242798,0.956421,-1.953125,9.643555,1.892090
18703,0.313354,-0.236328,0.950195,-2.136230,9.582520,1.464844
18714,0.319580,-0.236084,0.947998,1.037598,9.338379,1.525879
18725,0.326294,-0.241455,0.945068,2.502441,8.361816,1.770019
18736,0.324097,-0.245361,0.935547,2.624511,6.652832,1.464844
18748,0.306641,-0.239868,0.916992,2.136230,5.493164,0.732422
18759,0.308594,-0.244873,0.923096,2.014160,5.615234,0.244141
18770,0.314575,-0.251465,0.932495,2.075195,6.652832,0.671387
18781,0.313965,-0.252197,0.933472,1.403808,7.812500,1.647949
18793,0.309082,-0.247803,0.924194,-0.244141,9.155273,2.258301
18804,0.308350,-0.245239,0.917358,-2.868652,10.742187,2.075195
18815,0.316040,-0.245850,0.919312,-7.629394,12.817382,1.464844
18826,0.331421,-0.244141,0.923706,-9.277344,11.474608,1.464844
18838,0.344849,-0.239258,0.923096,-10.192870,8.056641,1.647949
18849,0.346558,-0.221436,0.908813,-9.704590,3.601074,1.342773
18860,0.340332,-0.210205,0.906250,-7.507324,-0.732422,0.000000
18871,0.334473,-0.207764,0.908081,-3.356933,-3.906250,-1.892090
18882,0.331665,-0.213623,0.910767,2.136230,-5.310058,-3.234863
18894,0.330688,-0.223267,0.916992,7.507324,-5.249023,-3.540039
18905,0.327515,-0.239380,0.923462,13.916015,-1.708984,-1.831055
18916,0.321899,-0.261963,0.925415,12.695312,0.793457,-0.427246
18927,0.316406,-0.279175,0.923706,8.117676,3.112793,0.854492
18939,0.313354,-0.283569,0.920410,1.892090,4.882812,2.075195
18950,0.319580,-0.262817,0.920898,-3.845215,6.103515,3.051758
18961,0.328003,-0.244751,0.918457,-7.507324,6.652832,3.906250
18972,0.336304,-0.225220,0.910767,-8.178711,6.347656,4.516602
18984,0.341431,-0.214966,0.906860,-6.042480,4.821777,4.699707
18995,0.342041,-0.215332,0.907715,-2.624511,2.624511,4.272461
19006,0.341553,-0.217407,0.909058,2.258301,-1.464844,2.868652
19017,0.341431,-0.218994,0.909180,3.479004,-3.356933,2.197266
19028,0.338623,-0.220703,0.909180,4.333496,-4.760742,1.770019
19040,0.323120,-0.226685,0.919067,4.882812,-5.249023,1.525879
19051,0.314209,-0.229614,0.927246,4.760742,-4.394531,1.403808
19062,0.311646,-0.231812,0.934082,3.906250,-2.380371,1.342773
19073,0.315552,-0.235718,0.939331,2.563476,-0.122070,1.464844
19085,0.322876,-0.236328,0.940918,0.732422,1.464844,1.525879
19096,0.329102,-0.232056,0.935547,-0.976562,2.197266,1.403808
19107,0.330200,-0.228516,0.923828,-2.136230,1.037598,0.976562
19118,0.327271,-0.226685,0.912109,-1.892090,-0.244141,0.671387
19129,0.322632,-0.225952,0.904541,-1.159668,-1.403808,0.366211
19141,0.315063,-0.229004,0.898682,0.183105,-2.136230,0.244141
19152,0.311768,-0.235229,0.901367,2.014160,-2.319336,0.427246
19163,0.309082,-0.241455,0.906616,3.662109,-2.075195,0.854492
19174,0.308960,-0.244751,0.915161,4.516602,-1.770019,1.281738
19186,0.312256,-0.241821,0.923462,4.394531,-1.464844,1.525879
19197,0.316895,-0.235596,0.927002,2.685547,-1.953125,1.403808
19208,0.321533,-0.229248,0.926758,2.014160,-2.929687,1.159668
19219,0.323975,-0.223022,0.923340,2.136230,-4.394531,0.793457
19230,0.321533,-0.220581,0.918579,2.990722,-5.798339,0.488281
19242,0.308472,-0.224854,0.922363,4.150391,-6.347656,0.305176
19253,0.305542,-0.229492,0.928101,5.126953,-5.676269,0.366211
19275,0.312012,-0.238525,0.937012,3.356933,-3.051758,0.488281
19286,0.316284,-0.233643,0.938843,0.549316,-2.502441,0.122070
19297,0.318726,-0.225098,0.937500,-1.770019,-2.624511,-0.488281
19308,0.317261,-0.220337,0.935425,-0.549316,-4.150391,-1.525879
19320,0.312500,-0.221313,0.932495,1.770019,-4.394531,-1.708984
19331,0.307495,-0.227905,0.929810,3.051758,-3.967285,-1.708984
19342,0.302734,-0.239624,0.938110,3.051758,-2.868652,-1.403808
19353,0.305420,-0.237671,0.941162,2.624511,-1.586914,-0.793457
19364,0.308838,-0.234863,0.940308,2.441406,-0.488281,-0.244141
19376,0.313232,-0.234131,0.937012,2.624511,0.305176,0.000000
19387,0.317993,-0.234863,0.932739,2.746582,0.732422,-0.122070
19398,0.322998,-0.237549,0.930420,1.464844,0.122070,-1.159668
19409,0.326050,-0.240723,0.930298,-0.305176,-0.915527,-1.647949
19420,0.325073,-0.240112,0.931885,-1.770019,-1.770019,-2.075195
19432,0.322632,-0.236084,0.934937,-1.647949,-1.953125,-2.319336
19443,0.318115,-0.236450,0.940186,0.244141,-1.281738,-2.197266
19454,0.316406,-0.241943,0.942261,3.173828,0.000000,-1.892090
19465,0.314697,-0.249268,0.941284,5.981445,1.525879,-1.525879
19476,0.315430,-0.257324,0.937744,7.629394,2.929687,-1.098633
19488,0.318604,-0.262573,0.934082,7.324218,3.723144,-0.671387
19499,0.322144,-0.259644,0.928833,1.770019,3.417969,-0.061035
19510,0.324585,-0.251221,0.922485,-1.037598,2.563476,-0.122070
19521,0.324463,-0.242798,0.919922,-2.319336,1.770019,-0.488281
19533,0.322876,-0.235107,0.920044,-1.892090,1.220703,-1.037598
19544,0.319092,-0.232056,0.914795,-0.244141,0.915527,-1.586914
19555,0.314697,-0.235229,0.914673,1.525879,0.549316,-1.831055
19566,0.310547,-0.239258,0.917725,2.929687,0.244141,-2.014160
19577,0.309570,-0.243652,0.921875,3.540039,0.305176,-2.014160
19589,0.312012,-0.246094,0.924683,3.295898,0.610352,-1.953125
19600,0.315186,-0.245850,0.924438,0.793457,0.244141,-2.014160
19611,0.316650,-0.243164,0.922485,-0.244141,-0.305176,-2.258301
19622,0.316528,-0.239624,0.921753,-0.061035,-0.732422,-2.685547
19633,0.314697,-0.238281,0.923584,1.342773,-0.488281,-3.173828
19645,0.308472,-0.247437,0.928833,3.356933,0.610352,-3.662109
19656,0.307373,-0.251831,0.926392,5.187988,2.258301,-3.845215
19667,0.307617,-0.252075,0.925537,6.530761,3.784179,-3.845215
19678,0.310913,-0.253662,0.924927,7.751464,4.760742,-3.784179
19689,0.316162,-0.256226,0.918701,8.544922,5.310058,-3.723144
19701,0.319824,-0.255005,0.911133,6.225585,5.004883,-4.089355
19712,0.321533,-0.251343,0.909180,3.906250,4.760742,-4.272461
19723,0.322754,-0.248779,0.911255,1.953125,5.004883,-4.272461
19734,0.329834,-0.239014,0.917480,1.037598,5.615234,-3.906250
19746,0.335083,-0.236572,0.918213,1.647949,5.981445,-3.234863
19757,0.340210,-0.237549,0.917969,3.112793,5.981445,-2.624511
19768,0.343994,-0.239746,0.913574,4.150391,5.554199,-2.319336
19779,0.346436,-0.240356,0.910767,3.906250,4.577637,-2.441406
19790,0.349121,-0.238647,0.912598,2.807617,3.417969,-2.685547
19802,0.349487,-0.239014,0.913940,1.098633,0.793457,-2.990722
19813,0.343750,-0.241821,0.914673,1.037598,-0.183105,-2.990722
19824,0.335083,-0.245605,0.915161,1.159668,-0.671387,-2.990722
19835,0.322998,-0.258057,0.916748,0.976562,-0.793457,-2.990722
19846,0.319702,-0.259766,0.919067,0.671387,-0.427246,-2.746582
19858,0.320068,-0.260132,0.922974,0.671387,0.305176,-2.136230
19869,0.322632,-0.262817,0.925781,0.976562,1.159668,-1.464844
19880,0.325317,-0.266479,0.926636,0.732422,1.525879,-1.037598
19891,0.326294,-0.265747,0.926758,-2.441406,-0.183105,-1.281738
19902,0.325073,-0.260986,0.926758,-3.356933,-1.098633,-1.586914
19914,0.324219,-0.258057,0.927368,-2.807617,-1.708984,-1.770019
19925,0.323364,-0.258423,0.926758,-1.220703,-2.136230,-1.770019
19936,0.317993,-0.260742,0.926758,0.854492,-2.319336,-1.647949
19947,0.316772,-0.264893,0.929199,2.990722,-2.136230,-1.342773
19958,0.317139,-0.270020,0.929321,4.333496,-1.342773,-0.793457
19970,0.319702,-0.270508,0.929932,4.150391,-0.061035,-0.122070
19981,0.325562,-0.266846,0.930176,2.502441,1.525879,0.549316
19992,0.333862,-0.257935,0.926758,-1.098633,2.624511,1.342773
20003,0.340332,-0.249023,0.919922,-1.708984,1.525879,1.037598
20014,0.341797,-0.245850,0.911743,-1.403808,-0.244141,0.366211
20026,0.338501,-0.245483,0.904663,-0.183105,-1.953125,-0.244141
20037,0.325439,-0.251465,0.906982,1.647949,-2.990722,-0.549316
20048,0.315796,-0.261719,0.912964,2.746582,-3.051758,-0.549316
20059,0.308960,-0.265991,0.920166,2.075195,-2.014160,-0.244141
20071,0.309204,-0.261963,0.925537,0.610352,-0.061035,0.122070
20082,0.314209,-0.260376,0.925537,-0.366211,2.136230,0.549316
20093,0.320923,-0.262451,0.921875,-3.051758,4.699707,0.732422
20104,0.327026,-0.260986,0.916260,-4.943848,4.089355,0.427246
20115,0.330322,-0.255493,0.911255,-5.676269,2.502441,-0.122070
20127,0.330200,-0.247803,0.906616,-4.455566,0.610352,-0.915527
20138,0.322876,-0.240356,0.901978,-1.525879,-0.915527,-1.953125
20149,0.320435,-0.247192,0.905518,2.258301,-1.647949,-3.112793
20160,0.320312,-0.258545,0.912354,5.554199,-1.464844,-3.906250
20172,0.322632,-0.267334,0.919312,7.263183,-0.549316,-3.845215
20183,0.325195,-0.269775,0.922729,6.896972,0.610352,-3.051758
20194,0.327148,-0.269043,0.926147,2.624511,2.197266,-0.793457
20205,0.331787,-0.265625,0.928589,0.244141,2.441406,-0.061035
20216,0.338867,-0.258179,0.927734,-1.281738,1.831055,0.183105
20228,0.342285,-0.249634,0.925537,-1.464844,0.671387,0.000000
20239,0.334351,-0.234253,0.922241,-0.183105,-0.122070,-0.366211
20250,0.329590,-0.236450,0.924072,2.136230,-0.183105,-0.793457
20261,0.328125,-0.242798,0.928589,4.516602,0.671387,-1.037598
20272,0.331055,-0.248169,0.932373,6.042480,1.892090,-1.037598
20284,0.335693,-0.253296,0.932617,6.103515,2.807617,-0.671387
20295,0.337769,-0.255127,0.931763,3.234863,1.953125,0.244141
20306,0.336426,-0.253174,0.929810,1.770019,0.488281,0.366211
20317,0.333496,-0.252197,0.925781,0.549316,-0.976562,0.305176
20329,0.331299,-0.247559,0.922119,-0.305176,-1.892090,0.244141
20340,0.330444,-0.244873,0.920410,-0.793457,-2.014160,0.305176
20351,0.331055,-0.242432,0.925171,-0.793457,-1.586914,0.427246
20362,0.333740,-0.241211,0.930664,-0.366211,-0.976562,0.549316
20373,0.335815,-0.242310,0.932251,0.305176,-0.427246,0.671387
20385,0.338135,-0.245728,0.933472,0.427246,-0.366211,0.671387
20396,0.340576,-0.248047,0.933838,-0.549316,-0.549316,0.427246
20407,0.342407,-0.246826,0.933960,-1.708984,-0.671387,-0.122070
20418,0.344727,-0.245239,0.931030,-2.685547,-0.854492,-0.854492
20429,0.345459,-0.240112,0.922974,-2.929687,-1.037598,-1.586914
20441,0.345459,-0.242188,0.922485,-2.197266,-0.793457,-2.197266
20452,0.348755,-0.244141,0.922607,-0.854492,0.000000,-2.441406
20463,0.355591,-0.243164,0.922485,0.610352,0.976562,-2.380371
20474,0.364746,-0.244507,0.921143,2.319336,1.464844,-2.380371
20486,0.374634,-0.246704,0.918091,4.760742,-0.366211,-2.807617
20497,0.382080,-0.246582,0.913940,5.187988,-2.563476,-3.173828
20508,0.386108,-0.248657,0.914673,5.310058,-4.577637,-3.479004
20519,0.392578,-0.254028,0.922852,4.882812,-6.164550,-3.540039
20531,0.416260,-0.250977,0.941284,3.845215,-7.690429,-3.417969
20542,0.427734,-0.245728,0.949341,2.929687,-9.521484,-3.112793
20553,0.441162,-0.246582,0.961792,2.197266,-11.291503,-2.807617
20564,0.460205,-0.248413,0.978760,0.671387,-13.000487,-2.868652
20576,0.481689,-0.247803,0.994751,-1.831055,-15.136718,-3.479004
20587,0.501953,-0.245605,1.005981,-8.850098,-24.169920,-5.737304
20598,0.517578,-0.248169,1.011719,-14.282226,-32.348633,-7.568359
20609,0.523193,-0.257324,1.010254,-21.240232,-42.175289,-9.643555
20621,0.497314,-0.237305,0.976685,-27.648924,-52.490231,-12.084960
20632,0.468750,-0.218140,0.959106,-32.043457,-62.255856,-15.136718
20644,0.443359,-0.207397,0.959839,-34.851074,-70.739746,-18.737793
20655,0.429932,-0.200195,0.970215,-36.865234,-77.514648,-22.094725
20666,0.417725,-0.193481,0.983154,-37.536621,-83.068840,-24.230955
20678,0.400146,-0.188354,0.992065,-28.686522,-90.393059,-22.338865
20689,0.390259,-0.184937,0.995728,-20.080564,-93.811028,-19.714355
20700,0.383057,-0.178711,0.991089,-13.427733,-99.304192,-18.371582
20712,0.351440,-0.152710,0.924683,-10.742187,-108.520500,-19.531250
20723,0.329102,-0.136108,0.883545,-10.681151,-122.497551,-23.437498
20734,0.299927,-0.139160,0.870483,-11.352538,-140.869141,-28.930662
20746,0.255615,-0.170410,0.893555,-12.878417,-161.254868,-32.531738
20757,0.195068,-0.207520,0.925537,-16.662598,-192.687973,-24.353025
20769,0.126587,-0.227539,0.947632,-14.587401,-199.645981,-14.770507
20780,0.067017,-0.216675,0.950562,-6.530761,-200.134262,-5.310058
20791,0.025269,-0.201294,0.933228,3.845215,-196.533188,1.647949
20803,-0.055542,-0.222534,0.894775,10.498046,-192.626938,5.920410
20814,-0.102295,-0.212036,0.879272,12.145995,-191.162094,7.507324
20825,-0.143799,-0.201538,0.869385,12.451171,-193.481430,6.469726
20837,-0.177979,-0.203369,0.866211,14.953612,-198.120102,4.394531
20848,-0.207764,-0.210327,0.863403,23.681639,-203.674301,5.187988
20859,-0.240479,-0.218994,0.856323,27.221678,-203.613266,9.765625
20871,-0.279663,-0.231201,0.839722,31.127928,-202.758774,14.709472
20882,-0.320068,-0.243774,0.813843,34.179688,-201.599106,17.089844
20893,-0.414551,-0.300049,0.770874,33.142090,-199.768051,15.747069
20905,-0.456665,-0.313843,0.762695,26.367186,-195.861801,11.108397
20916,-0.485229,-0.302612,0.753296,14.831542,-189.575180,4.333496
20928,-0.508667,-0.283569,0.730591,1.220703,-183.105453,-3.723144
20939,-0.534790,-0.267090,0.692993,-19.348145,-181.152328,-17.272949
20950,-0.563110,-0.255249,0.651611,-25.939939,-187.377914,-21.179197
20962,-0.588745,-0.233398,0.612305,-28.869627,-195.983871,-23.376463
20973,-0.645996,-0.165771,0.558716,-26.184080,-204.528793,-23.864744
20984,-0.687500,-0.160034,0.545288,-18.432617,-210.754379,-22.766111
20996,-0.732544,-0.177124,0.534912,-8.728027,-212.829575,-20.629881
21007,-0.771362,-0.200195,0.527100,-0.610352,-209.777817,-18.310547
21019,-0.804321,-0.225830,0.515259,3.784179,-201.477036,-16.784668
21030,-0.836182,-0.245972,0.496460,1.586914,-175.353989,-17.517090
21041,-0.863037,-0.249268,0.467651,-2.868652,-162.658676,-19.165039
21053,-0.884277,-0.237183,0.429932,-6.774902,-152.954102,-21.057127
21064,-0.926025,-0.219482,0.371826,-8.361816,-145.446777,-23.010252
21075,-0.941284,-0.214722,0.347412,-8.178711,-138.122559,-24.780272
21087,-0.946289,-0.198730,0.325806,-7.324218,-130.554199,-26.367186
21098,-0.946655,-0.179688,0.315186,-5.981445,-123.962395,-27.648924
21110,-0.952148,-0.172485,0.311890,-3.112793,-111.083977,-28.259275
21121,-0.961914,-0.180542,0.308472,-2.807617,-101.989738,-27.404783
21132,-0.968628,-0.185059,0.299194,-2.502441,-91.979973,-25.146482
21144,-0.972046,-0.179932,0.278809,-0.976562,-82.824699,-21.362303
21155,-0.986572,-0.172607,0.231567,1.892090,-75.256348,-16.662598
21166,-0.992188,-0.166382,0.216431,5.310058,-68.969727,-12.084960
21178,-0.995728,-0.156860,0.206299,8.239746,-63.720699,-8.666992
21189,-0.995117,-0.149292,0.201172,9.826660,-59.204098,-7.324218
21200,-0.990234,-0.145996,0.195190,7.446289,-50.964352,-9.155273
21212,-0.982544,-0.147461,0.183960,4.943848,-47.119137,-10.375976
21223,-0.975586,-0.153564,0.170654,2.929687,-43.457027,-11.108397
21234,-0.972290,-0.157349,0.161743,1.831055,-39.855957,-11.657714
21246,-0.963135,-0.142456,0.166138,1.586914,-35.705566,-11.962890
21257,-0.959473,-0.129395,0.171265,1.708984,-31.005857,-11.779784
21268,-0.964600,-0.118286,0.176880,2.319336,-26.123045,-11.108397
21280,-0.977295,-0.110229,0.183960,3.173828,-20.996092,-10.253905
21291,-0.991333,-0.103760,0.191406,4.028320,-8.056641,-10.009766
21302,-1.001465,-0.098511,0.195679,3.662109,0.061035,-11.291503
21313,-1.005493,-0.097412,0.192871,2.624511,8.300781,-13.427733
21325,-1.005981,-0.100952,0.183472,0.854492,15.258788,-15.686034
21336,-1.015747,-0.112915,0.171265,-1.403808,20.751951,-17.150879
21347,-1.024170,-0.116577,0.171021,-3.540039,25.390623,-16.906738
21359,-1.030518,-0.113770,0.170044,-4.760742,30.334471,-14.648437
21370,-1.032959,-0.109741,0.167114,-4.699707,35.583496,-10.620116
21381,-1.032959,-0.109985,0.165649,-3.417969,40.710445,-5.493164
21392,-1.029785,-0.120117,0.169434,0.793457,52.307125,5.126953
21404,-1.018677,-0.137695,0.182251,1.708984,60.363766,9.338379
