timestamp,ax,ay,az,gx,gy,gz,label
74,0.01206256570374533,0.25030536248711077,0.554610229721149,0.00981225418676736,0.16570737682546252,-0.2513423437080954,junk
85,0.017488305680840494,0.2569240166214371,0.5849001072334014,0.014160736803247238,0.1626497628211022,-0.25513430063146364,junk
96,0.02601582913226111,0.254439903216183,0.6174832484024085,0.01975165029439023,0.13920813338114332,-0.304429895954204,junk
107,0.03182889519315128,0.24451361649859898,0.6323969810685504,0.016645588374637057,0.1310545071685829,-0.3347656445325218,junk
119,0.03260354736074122,0.234170486740297,0.6303330437774711,0.011054674883494067,0.13003532476526392,-0.35941342666199666,junk
130,0.028727111718825922,0.22176008661745888,0.6248254515526418,0.006706192267014183,0.14022733248306316,-0.3745812854192603,junk
141,0.0217520674065508,0.1907306973425529,0.6073872491397608,0.004221350873560769,0.16570737682546252,-0.3821652303297874,junk
152,0.037641961254041456,0.17046128086666693,0.5904058197339217,0.004842561221924123,0.1952642342741421,-0.38595718725315564,junk
163,0.05856709419086673,0.14564048062099072,0.5768680452618329,0.00608498191865083,0.21666744881166042,-0.38785316571483974,junk
175,0.07639679326129781,0.13364353457105968,0.5674600250962115,0.0029789199988976577,0.22584027412614066,-0.3821652303297874,junk
186,0.09344866536017332,0.13777807530013192,0.5589711901176009,-0.0057180452340621045,0.22482105832562,-0.36889335003420787,junk
197,0.10197301400762832,0.13571080493559579,0.5534635978927717,-0.011930158895632046,0.20239864468618182,-0.33666162299420593,junk
208,0.09809975316967855,0.11461448031389537,0.5491045172206285,-0.013793800118658514,0.18609140895966186,-0.3271816996219947,junk
220,0.09034688188584795,0.08317163696608214,0.5470387002052403,-0.024975606745071693,0.1718225881355824,-0.32338974269862647,junk
231,0.08414648974116286,0.07200159906196564,0.5513977808773833,-0.0398846958175378,0.16876497413122207,-0.3139098193264152,junk
242,0.07872074976406761,0.09558203708892024,0.5566760467365371,-0.04485438878238104,0.1820146125519825,-0.29305399412030864,junk
253,0.08104788107080303,0.08399854511189667,0.5495631699519794,-0.03926348546917444,0.20953305509822157,-0.26461422400367485,junk
265,0.08802292538307815,0.058764290793313204,0.5433675986301237,-0.03491500285269456,0.23807068004777962,-0.23807046341251592,junk
276,0.10391281923056873,0.04387316623303173,0.54107245524906,-0.0398846958175378,0.2574355130800591,-0.22100662619356817,junk
287,0.12212666958082928,0.04138905282777774,0.536713374576917,-0.05044530227352403,0.26660833839453935,-0.20583873637251393,junk
298,0.13646725909313998,0.047180798816289435,0.5240929055675301,-0.046096819657044145,0.27170435060273934,-0.14137531335630066,junk
310,0.14654091207577494,0.05545326924224469,0.5082599877143773,-0.03429379250433121,0.26660833839453935,-0.09966369400787804,junk
321,0.14925536946630527,0.061661858271474454,0.5011471109298196,-0.024354396396708333,0.25641631397813924,-0.07501594294219387,junk
332,0.13607993300934496,0.08069091252863878,0.5165213760516213,-0.015657431163748573,0.24520510715842017,-0.07311993341671906,junk
343,0.14421695557300504,0.0959954911618275,0.5261587225829182,-0.008824096975878874,0.24010909495022012,-0.08070387832724621,junk
354,0.1558430876947854,0.09640894523473477,0.5337302520988269,-0.0057180452340621045,0.24112829405213998,-0.08259985678893035,junk
366,0.1581702190015208,0.08524229629842907,0.5385498652266297,-0.00944531750217863,0.24316669225597964,-0.07880789986556208,junk
377,0.15274447902442556,0.08193127474736055,0.5413017816147354,-0.023733186048344984,0.2482627044641797,-0.07880789986556208,junk
388,0.1473187390473304,0.0984796045670815,0.5413017816147354,-0.060384688203210496,0.273742748806579,-0.1110395958417734,junk
399,0.15119199988528015,0.13405698864396695,0.5385498652266297,-0.06411196047132701,0.28699237052873866,-0.12999941152240524,junk
411,0.16630724156518079,0.17377230241773525,0.5346475575615287,-0.0547937848900039,0.2941267809407784,-0.15275121519019602,junk
422,0.18374643974785132,0.19528208111234302,0.5328129466361249,-0.04050590616590115,0.2890307687325783,-0.18498294223019796,junk
433,0.2042874214048472,0.175012664636457,0.5332715993674759,-0.03243015128130474,0.27170435060273934,-0.23048651850198879,junk
444,0.20932583529814744,0.170874734939574,0.5390085179579805,-0.03429379250433121,0.24520510715842017,-0.2797821138247291,junk
456,0.2085511831305575,0.17542611870936428,0.5449728831898522,-0.04112711651426451,0.2197250628160208,-0.3214937642369423,junk
467,0.21087513963332732,0.18949033512383123,0.5516289869673676,-0.044233178434017674,0.201379445584262,-0.3480375248281013,junk
478,0.21552622744283262,0.20893623242171352,0.5553000885424844,-0.03739985442408438,0.19424503517222225,-0.35182948175146955,junk
489,0.22250127175510775,0.22217354069036604,0.5539222506241225,0.0029789199988976577,0.21870584701550014,-0.3385576014558901,junk
501,0.24304225341210356,0.2349973948861114,0.5486458644892777,0.023478912384570356,0.2421474931540598,-0.3328696660708377,junk
512,0.26009412551097916,0.24906161130057836,0.5360253954798906,0.04646375634163288,0.268646736598379,-0.3214937642369423,junk
523,0.34613131297691246,0.26974787081718243,0.5018350900268461,0.08497889971952485,0.29004996783449816,-0.3139098193264152,junk
534,0.37326001286238836,0.2676806004526463,0.49632937752632555,0.10361525088217108,0.29718437824653793,-0.3309736876091535,junk
546,0.39186118929644387,0.2395487786559016,0.49770533572037856,0.053297090529502565,0.28291555742245844,-0.34993350328978545,junk
557,0.43836571778356526,0.19983346488213322,0.5082599877143773,-0.03180894093294139,0.25233951757045986,-0.35182948175146955,junk
568,0.46588174375283636,0.17211509715829576,0.5277640071426466,-0.07156650500756007,0.2085138559963017,-0.33666162299420593,junk
579,0.46239580899868143,0.15432640511985304,0.5472680265709157,-0.04485438878238104,0.10761287772862407,-0.29305399412030864,junk
591,0.4589066994405612,0.15639706445219978,0.5610351274086801,-0.0398846958175378,0.06174880125202539,-0.26840621199083375,junk
602,0.4484425455701657,0.17335884834482818,0.5750334343364291,-0.04050590616590115,0.0199615378817069,-0.22100662619356817,junk
613,0.42170117176848465,0.19652244333106472,0.5888005351741935,-0.043611968085654325,-0.011633717770812351,-0.16791907394745959,junk
624,0.3937978197154187,0.23541084895901868,0.59247163674931,-0.046096819657044145,-0.023864140391052117,-0.1243114761373529,junk
635,0.39224851538023886,0.2420295030933449,0.5803098204712741,-0.04112711651426451,-0.015710514178491713,-0.09397572755903504,junk
647,0.39031188496126396,0.23458394081320416,0.5642475762524459,-0.020627124128591807,0.016903940575947376,-0.08828782323777336,junk
658,0.39844890752492396,0.2205197243987372,0.5520876396987185,0.00981225418676736,0.06174880125202539,-0.11483155276514168,junk
669,0.4077510831439346,0.20769248123518114,0.540155149786358,0.037766791108673106,0.09742087001082483,-0.1546471936518801,junk
680,0.4143388013724147,0.19362826482071419,0.5234049264705034,0.0296910362240767,0.08417124828866523,-0.2361744849508318,junk
691,0.4310033473874953,0.20273103236029447,0.4997711527357667,0.009191043838404002,0.03830717181206654,-0.2892620371969404,junk
703,0.4480552194863707,0.24326986531206657,0.47338358288861526,0.0004940786054442416,-0.021825725488611596,-0.33666162299420593,junk
714,0.45348095946346595,0.29912005483264875,0.44745466577281484,0.010433464535130712,-0.09316984630760963,-0.370789328495892,junk
725,0.4306160213037003,0.2846389953774638,0.4385052983385444,0.02410013291087011,-0.16757156443236723,-0.397333089087051,junk
736,0.4058112779209941,0.2093496864946208,0.4442422169290491,0.017888009071363762,-0.22464688112588665,-0.41060490725504917,junk
748,0.38411149281657886,0.17542611870936428,0.43735866651016697,-0.024975606745071693,-0.245030913260086,-0.41060490725504917,junk
759,0.36279585899199307,0.1808044106249689,0.43116309518831125,-0.1051119554206088,-0.2389157019499661,-0.40681295033168097,junk
770,0.3403182469160222,0.20107382710085492,0.43965193016692183,-0.1995361624643759,-0.22464688112588665,-0.3821652303297874,junk
781,0.3190026130914364,0.23582430303192584,0.45112576734793136,-0.3169452032872691,-0.18082118615452683,-0.22479858311693643,junk
793,0.30427469749533065,0.2896038332201612,0.4456181751231021,-0.32067247555538564,-0.1696099626362069,-0.1375833564329324,junk
804,0.3011729140210053,0.3156683846523698,0.43575150222612963,-0.3070058173575826,-0.17470597484440695,-0.08639181371229855,junk
815,0.30001093576962046,0.27967754650257715,0.485772845808018,-0.2896118767137267,-0.179801987052607,-0.04847215128724427,junk
826,0.2953598479601152,0.278847249388952,0.5153728644989349,-0.2678694636313273,-0.16859076353428706,0.008407357882232576,junk
838,0.28993410798301994,0.2602316492046949,0.5197338248953869,-0.2417785577545116,-0.1431107191918877,0.09372657504076184,junk
849,0.2752093671908798,0.22424081105490215,0.5043595597735853,-0.21817252380495852,-0.11661149244616932,0.18283781125024062,junk
860,0.26009412551097916,0.19610898925815745,0.4887559682861081,-0.2076119173489723,-0.09113144810376997,0.21506950722645196,junk
871,0.27482204110708486,0.19693928637178268,0.48898529465178353,-0.2063694966522456,-0.07176661507149049,0.20179762693087247,junk
883,0.2655198654880743,0.1878365188322023,0.5016057636611706,-0.22127856536883891,-0.0676898019652103,0.22644540906034732,junk
894,0.2240505760902876,0.15846433481673589,0.5107844574611164,-0.2417785577545116,-0.040171359418971236,0.22834138752203145,junk
905,0.19847435534395702,0.18328513506241217,0.5206511303580889,-0.23929370618312176,-0.007556904664532145,0.25867713610034926,junk
916,0.14615358599197992,0.3131842712471158,0.5523169660643942,-0.20947555857199876,0.010788729265827498,0.31745262373151023,junk
928,0.13026369214448927,0.3392488226793244,0.5670013723648605,-0.1641270810062371,0.010788729265827498,0.36106022154161693,junk
939,0.12367597391600915,0.3334570766908125,0.5807684732026249,-0.11443013100193193,-0.004499307358772625,0.37812408982435525,junk
950,0.11631360351993911,0.3392488226793244,0.5853587599647524,-0.0684604430878069,-0.027940936798731476,0.38760398213277586,junk
961,0.10856390704007404,0.38351213125507216,0.5770973716275083,-0.02683924796809815,-0.04628657072909111,0.41035578580056664,junk
973,0.09848707925347357,0.43770511551621477,0.5642475762524459,0.07255466221844856,-0.0574977775488102,0.48429916325278183,junk
984,0.09073420796964297,0.4629427588026089,0.5553000885424844,0.11044858507004078,-0.06667060286329045,0.4899870986378342,junk
995,0.0926740131925834,0.4397757748485616,0.5555294149081598,0.1210091813480906,-0.09724665941388984,0.4596513500595163,junk
1006,0.10430014531436374,0.348348201251094,0.5731969436867164,0.10672131280192425,-0.14820673140008775,0.40466785041551423,junk
1018,0.11902488610650391,0.35910478508230315,0.5770973716275083,0.07938799640631826,-0.2001860191868063,0.3439963843226692,junk
1029,0.1201900391618544,0.3731690014967702,0.578933862277221,0.052054659654839464,-0.23789650284804625,0.29090886314035125,junk
1040,0.09693460011432815,0.3355243470553486,0.5816876583896358,0.026584974304323532,-0.26439574629236545,0.24919721272813805,junk
1051,0.06980907503281761,0.27926409242966993,0.5851294335990768,-0.00261198331430893,-0.2888565414370425,0.20558961491803135,junk
1063,0.05585581160430192,0.2643695789015778,0.5888005351741935,-0.06597560169435349,-0.3703926866724407,0.16577394296750225,junk
1074,0.04190254817578614,0.2780203412431376,0.5977499026084637,-0.06535439134599012,-0.3999495441211202,0.20938157184139958,junk
1085,0.013611870038925198,0.2784337953160448,0.6163347368497224,-0.04485438878238104,-0.3856807065984399,0.25678115763866516,junk
1096,-0.0135168298465508,0.25733747069434426,0.6385925523904062,-0.019384703431865102,-0.33472063461224205,0.27384499485761293,junk
1107,-0.018164742852090493,0.19321481074780691,0.6700290617310359,0.0023577096505343043,-0.2766261689126052,0.2605731145620334,junk
1119,-0.014678808097935744,0.1638426267323405,0.6762246330528917,0.011054674883494067,-0.2470693114639257,0.23402935397087443,junk
1130,-0.0135168298465508,0.14729429691261955,0.6842548153001514,0.001115288953807595,-0.2521653236721257,0.2036936053925566,junk
1141,-0.011577024623610384,0.15846433481673589,0.7003170595189796,-0.030566520236214683,-0.26847254270004484,0.1809418327885565,junk
1152,-0.018164742852090493,0.17459921056354977,0.7253286711720782,-0.07405134640101349,-0.27764536801452505,0.16956593095466113,junk
1163,-0.044518790569976555,0.170874734939574,0.7583704650724361,-0.14238465774590128,-0.29191415544140287,0.1809418327885565,junk
1175,-0.08017501390687308,0.16218881044071165,0.7808576069787955,-0.17033919466780703,-0.2970101676496029,0.188525746635293,junk
1186,-0.10613856073699864,0.16922091864794514,0.7787917899634073,-0.19580889019625938,-0.29395255364524253,0.19231773462245186,junk
1197,-0.12474291197501965,0.1799775024791544,0.7735154038285623,-0.20947555857199876,-0.27153015670440517,0.20748559337971548,junk
1208,-0.20186524990573737,0.2068655730893667,0.8031154225194798,-0.20015738299067565,-0.21139724270512622,0.25298916965150625,junk
1220,-0.24178206016437867,0.2349973948861114,0.7918709117041454,-0.17965738042706655,-0.10540026892784941,0.3098686788209831,junk
1231,-0.253408192286159,0.2656099411202995,0.7572238332440587,-0.16164222943484727,0.02199993608554658,0.3534763076948804,junk
1242,-0.23907077757781386,0.2962224873544875,0.7168379564691586,-0.129960420244825,0.13207372296910364,0.3724361233755123,junk
1253,-0.20690366379903763,0.3127708171742085,0.6798957346280085,-0.0672180223910802,0.20545624199194135,0.36295623106709163,junk
1265,-0.1894644656163671,0.31235736310130124,0.6484592252873788,0.052675880181139216,0.268646736598379,0.2681570594725605,junk
1276,-0.1894644656163671,0.3268384225564863,0.6165640632153978,0.03900921180539982,0.28393475652437833,0.20938157184139958,junk
1287,-0.1696981361269612,0.36655034736244385,0.5855880863304278,-0.013793800118658514,0.2890307687325783,0.18473378971192472,junk
1298,-0.0871500582191482,0.3872366068790479,0.5188146397083762,-0.061627119077873604,0.28393475652437833,0.18473378971192472,junk
1310,-0.07940036173928315,0.3884769690977695,0.4908217853014963,-0.08461195285699973,0.268646736598379,0.19800567000750421,junk
1321,-0.06854888178509273,0.39633598545081755,0.46466354182002023,-0.10076347280412894,0.25641631397813924,0.19421371308413599,junk
1332,-0.021653852410210776,0.4372916614433075,0.44447154329472466,-0.102627103849219,0.25233951757045986,0.18662976817360888,junk
1343,0.0023730640009398587,0.4703883210827496,0.4520430728106332,-0.07777861866913002,0.24112829405213998,0.22834138752203145,junk
1355,0.008960782229419968,0.4501189046068636,0.4830209294199121,-0.011308948547268693,0.20036024648234216,0.34210040586098506,junk
1366,0.01206256570374533,0.39964700700188593,0.5084893140800528,-0.010687738198905339,0.1820146125519825,0.3458923627843533,junk
1377,0.02679048129985104,0.38061795274472165,0.5190458457983604,-0.045475599130744386,0.15959216551534264,0.3212445806548785,junk
1388,0.04229304906354669,0.38268522310925773,0.523175600104828,-0.10449073489430906,0.1381889342792235,0.29280484160203535,junk
1399,0.06011957333001214,0.4848659915701238,0.5413017816147354,-0.16350586047993731,0.12392011345514405,0.2890128536148765,junk
1411,0.06244352983278203,0.5407161810907061,0.552775618795745,-0.19270283845444258,0.11576650394118447,0.3155566142060355,junk
1422,0.04810611512443686,0.5465079270792178,0.5585125373862498,-0.1697179843194437,0.10965127593246378,0.3534763076948804,junk
1433,0.026403155216056032,0.5084464295970784,0.5605764746773293,-0.10076347280412894,0.10353608132094472,0.37812408982435525,junk
1444,0.017488305680840494,0.45053235867977076,0.5585125373862498,-0.016899851860475282,0.09640165421030417,0.36864416645214404,junk
1455,0.024076023909320694,0.40626566113621226,0.5550707621768087,0.06758496925360533,0.0637872161544659,0.33262048248877385,junk
1467,0.03492750386351102,0.3946821691591886,0.5566760467365371,0.06323647645918905,0.04544158222410627,0.35158032923319626,junk
1478,0.038803939505426314,0.39799319071025707,0.5610351274086801,0.04770617703835958,0.04747998042794595,0.3970839055049872,junk
1489,0.030663742137800803,0.40750602335493397,0.5660840669021586,0.026584974304323532,0.0770368378766255,0.44827544822562093,junk
1500,0.01710097959704557,0.44928860749323846,0.5688378630145732,0.007948623141677295,0.12697771076090356,0.482403153727307,junk
1512,0.03182889519315128,0.4617023965838873,0.5619543125956911,0.0029789199988976577,0.17793779944570232,0.49377905556120244,junk
1523,0.05197937596238662,0.4521861749713997,0.5612644537743557,0.005463771570287476,0.2105522542001414,0.4786111968039388,junk
1534,0.06864392197746721,0.4588048291057259,0.5688378630145732,0.00608498191865083,0.21462905060782075,0.45396341467446394,junk
1545,0.07833342368027268,0.4749397048525398,0.5777872304488436,0.007948623141677295,0.19220662026978177,0.4312116110066732,junk
1556,0.07174570545179258,0.4687345047911207,0.5901764933682463,0.027827405178986644,0.09742087001082483,0.4065638288771984,junk
1568,0.05391918118532704,0.444740612691259,0.606009411221399,0.04025163250212652,0.05869120394626587,0.4027718408900395,junk
1579,0.037641961254041456,0.42819228287153793,0.6229889609029291,0.04956981826138604,0.04849917952986579,0.40466785041551423,junk
1590,0.027565133467440977,0.430259553236074,0.6397410639430924,0.061994055762462336,0.07397922387226516,0.41793973071109375,junk
1601,0.01012593528477045,0.44928860749323846,0.6482298989217029,0.07876678605795491,0.12188171525130435,0.4293156325449891,junk
1613,-0.004214654227540251,0.4029580285529545,0.6401997166744433,0.08622132041625155,0.16468817772354272,0.41414774272393484,junk
1624,-0.007313262897900076,0.34876165532400116,0.6369872678306778,0.06634253837894222,0.18507220985774203,0.3667481879904599,junk
1635,0.005087521391470209,0.3504188605834408,0.6418050012341718,0.01975165029439023,0.18609140895966186,0.3041807123721401,junk
1646,0.01206256570374533,0.38640969873323344,0.6477712461903521,-0.03491500285269456,0.1758993845432618,0.24730123426645392,junk
1658,0.006249499642855154,0.41660879089451425,0.6539668175122078,-0.09641498000971266,0.12799690986282342,0.2112775503030837,junk
1669,-0.010027720288430427,0.4488751534203312,0.6615383470281168,-0.08523316320536307,0.11372808903874396,0.23592533243255856,junk
1680,-0.031343354113016336,0.4670772995316811,0.6624556524908184,-0.052930143666977444,0.10965127593246378,0.26246909302371757,junk
1691,-0.03599444192252157,0.45632410466828266,0.6514423477654688,-0.01503622081538522,0.10965127593246378,0.2719490163959288,junk
1702,-0.018942569823645963,0.4554938075546575,0.6629161849464782,0.016024378026273704,0.10863207683054392,0.2643650714854016,junk
1714,0.003147716168529793,0.4654234832400522,0.678747223075322,0.039630422153763174,0.11576650394118447,0.2681570594725605,junk
1725,0.02523800216070555,0.48197181305977327,0.6837961625688006,0.05826678349434581,0.1381889342792235,0.2965967985254036,junk
1736,0.046940962069086385,0.49934705102530874,0.6737001633061528,0.07193345187008521,0.16876497413122207,0.33830841787382615,junk
1747,0.06670729155849234,0.5018277754627521,0.6564912872589471,0.05516072157459263,0.21462905060782075,0.35158032923319626,junk
1759,0.08027005409924756,0.5150684726992153,0.6374459205620289,0.02223649168784365,0.22380185922370016,0.3098686788209831,junk
1770,0.09034688188584795,0.5378186136125447,0.6186298802307859,-0.011308948547268693,0.21157145330206126,0.25867713610034926,junk
1781,0.0953852957791482,0.5411296351636132,0.6053214321243725,-0.03553621320105792,0.17691860034378246,0.21506950722645196,junk
1792,0.07484431412215231,0.5494021055895684,0.6037142678403353,-0.04733924035377085,0.1371697184787028,0.1904217250969771,junk
1804,0.052366702046181546,0.5907712356549656,0.6066973903184255,-0.046718030005407495,0.11270888993682412,0.17714984480139762,junk
1815,0.03260354736074122,0.6147685167226381,0.6151881050213449,-0.03243015128130474,0.11067049173298445,0.16387796450581815,junk
1826,0.024850676076910626,0.6089767707341264,0.6229889609029291,-0.006339255582425458,0.13309292207102344,0.15629405065908167,junk
1837,0.03647680819869098,0.587463603071708,0.6197765120591633,0.02223649168784365,0.1708033890336626,0.15819002912076577,junk
1849,0.06128155158139709,0.5618158946802172,0.6048627793930215,0.042736484073516344,0.22074426191794064,0.1525020626719228,junk
1860,0.08995955580205303,0.5423699973823349,0.5869640445244808,0.0296910362240767,0.21157145330206126,0.14112619190181805,junk
1871,0.11166251571043379,0.5390623647990771,0.5729676173210407,0.012918316106520531,0.18914902296402222,0.12975029006792269,junk
1882,0.13491477995399456,0.5800180407915672,0.5479560056679423,0.0023577096505343043,0.15959216551534264,0.12216634515739558,junk
1894,0.13762923734452492,0.5750532029488697,0.5431382722644481,0.0023577096505343043,0.13003532476526392,0.11647837870855257,junk
1905,0.136854585176935,0.5452675648604962,0.5380893327709698,0.007327412793313941,0.1014976664185042,0.11647837870855257,junk
1916,0.13568943212158452,0.5092767267107036,0.5312057823520877,0.00608498191865083,0.07805603697854535,0.12027036669571144,junk
1927,0.13142884519983974,0.4869366509024706,0.5252395373959075,-0.008824096975878874,0.06174880125202539,0.12216634515739558,junk
1938,0.12561577913894956,0.4960360294742403,0.5247808846645564,-0.03180894093294139,0.05053759443230631,0.12027036669571144,junk
1950,0.11941221219029893,0.5249947594167994,0.5300591505237103,-0.051066512621887376,0.039326370913986386,0.10889446486181609,junk
1961,0.11127518962663886,0.5477482892979395,0.5433675986301237,-0.03553621320105792,0.028115147395666465,0.0918305965790777,junk
1972,0.10003638358865344,0.5485751974437539,0.5626422916927175,-0.010066527850541985,0.0240383509879871,0.0652868670517094,junk
1983,0.07523164020594733,0.4827987212055877,0.5835222693150396,0.014160736803247238,0.03117276140002682,0.03305514001170742,junk
1995,0.06089422549760216,0.4306730073089813,0.5915543312866081,0.02410013291087011,0.04544158222410627,0.004615400958864338,junk
2006,0.04810611512443686,0.38640969873323344,0.6000431662652186,0.01850921941972712,0.06480641525638575,-0.010552488862189902,junk
2017,0.0407405699244012,0.37482620675620976,0.6000431662652186,0.00608498191865083,0.0902864429001843,-0.00676050087503102,junk
2028,0.04345502731493164,0.39178799064883807,0.5904058197339217,-0.00261198331430893,0.11780490214502418,0.010303336343916681,junk
2039,0.05353185510153203,0.4070925692820267,0.5777872304488436,0.003600140525197416,0.14124653158498301,0.03495111847339153,junk
2051,0.06554531330710739,0.40833293150074834,0.567689351461887,0.010433464535130712,0.14532334469126323,0.0406390538584439,junk
2062,0.08608312016013774,0.41660879089451425,0.5628716180583929,0.02161528133948029,0.15347695420522278,0.04822299876897102,junk
2073,0.11398964701716921,0.43108646138188844,0.5608058010430047,0.04149406337678963,0.16163056371918236,0.05770292214118228,junk
2084,0.14848071729871534,0.4124708611976313,0.5426796195330973,0.06696375890524198,0.16468817772354272,0.06907879291128699,junk
2096,0.16165615375567555,0.38392558532797944,0.5298298241580347,0.08435768937116149,0.1606113646172625,0.07097480243676174,junk
2107,0.17560941718419135,0.357037514717767,0.5204218039924134,0.08622132041625155,0.14838094199702273,0.0652868670517094,junk
2118,0.18684822322217667,0.3400757308251388,0.5190458457983604,0.07193345187008521,0.12493931255706389,0.05770292214118228,junk
2129,0.1918866371154769,0.3334570766908125,0.527993333508322,0.047084966689996226,0.09130565870070496,0.05959890060286638,junk
2140,0.18646089713838176,0.34421366052202174,0.5424502931674218,0.006706192267014183,0.010788729265827498,0.09941454148960484,junk
2152,0.18258446149646645,0.3731690014967702,0.552775618795745,0.00981225418676736,-0.01978732728477191,0.12406232361907969,junk
2163,0.17754604760316622,0.3859962446603263,0.5575933521992392,0.025342553607596817,-0.03303694900693151,0.14112619190181805,junk
2174,0.16359595897861598,0.37358584453748817,0.5601178219459784,0.0433576944218797,-0.025902538594891795,0.15819002912076577,junk
2185,0.1558430876947854,0.34379681748130375,0.5718209854926634,0.052675880181139216,-0.0055185064606924645,0.17714984480139762,junk
2196,0.1748347650166014,0.3367647092740703,0.5821463111209866,0.05143344930647611,0.015884724775426698,0.2036936053925566,junk
2208,0.1914993110316819,0.34669438495946503,0.59247163674931,0.04646375634163288,0.02607674919182678,0.23592533243255856,junk
2219,0.19614722403722168,0.3611720554468392,0.6021089832806069,0.042736484073516344,0.02199993608554658,0.2605731145620334,junk
2230,0.1934359414506568,0.3715151852051413,0.6083045546024627,0.04025163250212652,0.002635119751867931,0.2681570594725605,junk
2241,0.18490841799923627,0.375239660829117,0.6101391655278665,0.032797098143829875,-0.04730576983101096,0.24919721272813805,junk
2253,0.1748347650166014,0.37937759052599995,0.6108290243492017,0.03217588779546652,-0.05851699334933089,0.2435092773430857,junk
2264,0.1666945676489758,0.38351213125507216,0.6126636352746057,0.03403951884055658,-0.05138258293729116,0.2454052558047698,junk
2275,0.15545576161099037,0.375239660829117,0.6298743910461201,0.03590316006358305,-0.032017749905011675,0.2510931911898222,junk
2286,0.1496426955501002,0.3582778769364887,0.6395098578531081,0.02906982587571335,-0.009595302868371833,0.2435092773430857,junk
2298,0.1500300216338952,0.3549668553854202,0.6420343275998472,0.014160736803247238,0.00773111526146714,0.22644540906034732,junk
2309,0.15468110944340044,0.36655034736244385,0.6365286150993268,-0.0007483522692188698,0.017923139677867215,0.2112775503030837,junk
2320,0.1558430876947854,0.3719286392780485,0.6298743910461201,-0.005096834885698749,0.02199993608554658,0.20558961491803135,junk
2331,0.15196665205287008,0.3719286392780485,0.6307916965088222,0.0017364993021709509,0.0240383509879871,0.20938157184139958,junk
2342,0.1500300216338952,0.3719286392780485,0.6344627980839387,0.0296910362240767,0.0372879727101467,0.21886149521361084,junk
2354,0.14848071729871534,0.3640696229250006,0.6344627980839387,0.030312246572440058,0.04238396821974591,0.21317352876476783,junk
2365,0.14615358599197992,0.3528995850208841,0.6337748189869122,0.016024378026273704,0.03830717181206654,0.2036936053925566,junk
2376,0.1542937833596055,0.3611720554468392,0.634233471718263,-0.0057180452340621045,0.030153562298106982,0.1961096915458201,junk
2387,0.15933219725290568,0.3698613689135124,0.6328556337999014,-0.021248344654891567,0.02301915188606726,0.19990164846918837,junk
2398,0.15855754508531572,0.3797910445989072,0.6314796756058485,-0.025596827271371445,0.02199993608554658,0.21317352876476783,junk
2410,0.15894487116911074,0.39509562323209585,0.6275792476650564,-0.020627124128591807,0.03117276140002682,0.2302373970475062,kiss
2421,0.1643706111462059,0.4087497745414663,0.6174832484024085,-0.010687738198905339,0.04646078132602611,0.23971728935592682,kiss
2432,0.17212030762607097,0.4112304989789096,0.6037142678403353,0.004842561221924123,0.049518378631785626,0.23213337550919033,kiss
2443,0.18064783107749158,0.41371122341635297,0.5952254328617246,0.011054674883494067,0.03117276140002682,0.21317352876476783,kiss
2455,0.18452109191544133,0.4273653747257235,0.5952254328617246,0.019130429768090474,0.0036543188537877715,0.18473378971192472,kiss
2466,0.18917217972494657,0.434397482932957,0.5931596158463365,0.028448615527349994,-0.02692173769681163,0.1543980411336069,kiss
2477,0.19111198494788698,0.4174356990403287,0.5814583320239601,0.03652436023401,-0.0574977775488102,0.12406232361907969,kiss
2488,0.19614722403722168,0.4124708611976313,0.5711330063956369,0.04522133564490617,-0.09011224900185012,0.09941454148960484,kiss
2500,0.21203711788471225,0.4087497745414663,0.5557587412738352,0.057645573145982454,-0.13189949567356776,0.08424668273234123,kiss
2511,0.2240505760902876,0.41329776934344575,0.5458920683768629,0.07317587256681192,-0.18897479566848638,0.07097480243676174,kiss
2522,0.22327592392269768,0.41660879089451425,0.553234271527096,0.09181222372945815,-0.2694917418019647,0.05580694367949814,kiss
2533,0.2170755317780125,0.40667911520911953,0.5711330063956369,0.12908493623268702,-0.49167771377291847,0.004615400958864338,kiss
2545,0.21513890135903763,0.3930283528675597,0.5858174126961033,0.1415091737337633,-0.6048091146608359,-0.02192839069608529,kiss
2556,0.22366325000649262,0.37689347712074583,0.6069267166841009,0.15082736967095922,-0.7046908103335894,-0.031408314068296514,kiss
2567,0.23684186126741846,0.34545402274074344,0.6794370818966572,0.16573644856548894,-0.7790925451569478,-0.01434444578555814,kiss
2578,0.24149294907692367,0.3231139469325105,0.6906797129876825,0.19306975478315852,-0.8310718329436664,0.023575216639496174,kiss
2590,0.2484679933891988,0.29208794662541526,0.6824202043747474,0.22910004658966066,-0.8840703198323048,0.0652868670517094,kiss
2601,0.26823432287860466,0.25816437884015875,0.6789784291653064,0.25953943508295624,-0.9574528388551425,0.09941454148960484,kiss
2612,0.28683549931266017,0.19280135667489975,0.6899917338906563,0.26513034857409923,-1.0461234612969836,0.1392301823763433,kiss
2623,0.2918739132059604,0.12288695073985044,0.7094957533189254,0.16387281752039887,-1.1653700567964203,0.29280484160203535,kiss
2635,0.30350004532774083,0.11668175067843148,0.725787323903429,0.08373647902279814,-1.1643508576945003,0.36106022154161693,kiss
2646,0.33024141912942173,0.1799775024791544,0.722345548693988,0.005463771570287476,-1.1582356463843806,0.38002003722224875,kiss
2657,0.3682215989690881,0.27388580051406536,0.6936628354657727,-0.05976347785484713,-1.1979845115508594,0.3439963843226692,kiss
2668,0.4023253431668393,0.424054353174655,0.6108290243492017,-0.10386952454594571,-1.3162117743595692,0.27763695178098113,kiss
2679,0.3562049659595473,0.4426699533589121,0.5892591879055443,-0.12747556867343518,-1.5037448933722442,0.19231773462245186,kiss
2691,0.26397056115289447,0.4414295911401904,0.5883418824428425,-0.129960420244825,-1.724911666241278,0.1107904433235002,kiss
2702,0.15661773986237532,0.44639442898288784,0.6099098391621911,-0.11443013100193193,-1.939963227800192,0.04822299876897102,kiss
2713,0.05314135421377157,0.44804824527451675,0.6438708182495599,-0.08274832181190965,-2.1091508297727133,0.008407357882232576,kiss
2725,-0.05731007574710739,0.43357057478714256,0.6681925710813232,0.004842561221924123,-2.2528582705126294,0.025471195101180306,kiss
2736,-0.19566485776105225,0.40667911520911953,0.6601623888340635,0.047084966689996226,-2.272223103544909,0.04822299876897102,kiss
2747,-0.3561099257671729,0.3413160930438605,0.6280379003964074,0.07566072413820173,-2.310952769609468,0.052014955692339264,kiss
2758,-0.6669232339928137,0.13943528055957158,0.5720503118583389,0.07379708291517528,-2.3659896714005466,0.06149487906455051,kiss
2770,-0.8107037559838538,0.1344704427168742,0.5589711901176009,0.0433576944218797,-2.408796133872785,0.0918305965790777,kiss
2781,-0.9459599293274389,0.15267258882822418,0.5619543125956911,0.001115288953807595,-2.4200073573911047,0.1468141272868704,kiss
2792,-1.0657135349073283,0.1820447728436905,0.5594298428489519,-0.024354396396708333,-2.383316089530386,0.2302373970475062,kiss
2803,-1.1699613979195564,0.20107382710085492,0.536713374576917,-0.020627124128591807,-2.3038183591974284,0.3136606357443513,kiss
2815,-1.2773142192100757,0.1253676751772938,0.5075720086173509,-0.00012713174291911178,-2.136669289017553,0.3705401449138282,kiss
2826,-1.3753648648815844,0.014914436290472498,0.4887559682861081,-0.020627124128591807,-2.0643058355078288,0.35916424307993283,kiss
2837,-1.4284571115971856,-0.002047347602155707,0.4743008883513173,-0.059142267506483784,-1.9980577268970305,0.36106022154161693,kiss
2848,-1.4637260088502873,0.045940436597567844,0.4515844200792824,-0.09082407669650606,-1.9470976382122318,0.3857080036710918,kiss
2860,-1.601693464780437,0.12288695073985044,0.36278436400653097,-0.10014225227782916,-1.923655992073672,0.40845980733888254,kiss
2871,-1.6702882792597344,0.20314448643320174,0.3159735895440997,-0.08274832181190965,-1.939963227800192,0.3970839055049872,kiss
2882,-1.7140815251602908,0.30491180082116065,0.28339044837509236,-0.04050590616590115,-2.0031537391052305,0.35158032923319626,kiss
2893,-1.7404355728781769,0.3595182391552104,0.2629691234841212,0.015403157499973945,-2.098958822054914,0.29280484160203535,kiss
2905,-1.771050207517808,0.3268384225564863,0.24048198157776196,0.054539511226229284,-2.2029173976283514,0.23213337550919033,kiss
2916,-1.8129068229993897,0.272642049327533,0.20881614587145664,0.010433464535130712,-2.3843353053309064,0.11647837870855257,kiss
2927,-1.852048981090441,0.29250140069832253,0.17118594493327988,-0.036157423549421266,-2.485236266899983,0.0406390538584439,kiss
2938,-1.8950675748234076,0.3810314068176288,0.12873613086730026,-0.06970286378453361,-2.6187516999221,-0.061744031582823704,kiss
2950,-2.145810417217206,0.424054353174655,0.07274854232923182,-0.0902028561702063,-2.765516487488763,-0.17929497578135495,kiss
2961,-2.329510924270853,0.4037849366987689,0.04498313456371846,-0.10697558646569888,-2.8827246847843595,-0.2987419605691516,kiss
2972,-2.503906080901524,0.4091632286143735,0.02662762668813564,-0.12374829640531865,-2.942857582085038,-0.41060490725504917,kiss
2984,-2.6352858186031938,0.43687820737040034,0.026168973956784625,-0.13058163059318834,-2.940819183881198,-0.5357398274278982,kiss
2995,-2.7441879442288926,0.4430834074318194,0.02226666629168379,-0.12374829640531865,-2.8766094734742396,-0.6646666734603247,kiss
3006,-2.8507629385478563,0.4418430452130977,-0.00022047561467568996,-0.10386952454594571,-2.5891948424734204,-0.7954895911458075,kiss
3018,-2.9457149755490053,0.46252930472970166,-0.04312894241200632,-0.09579376966134931,-2.429180182705585,-0.7708417468887513,kiss
3029,-3.0344634456015034,0.5084464295970784,-0.10439291708491977,-0.07218771535592343,-2.3119719854099885,-0.7177542257064333,kiss
3040,-3.1840570336534335,0.5117574511481469,-0.2312837065515076,-0.03677863389778462,-2.24164706369291,-0.6798345322175884,kiss
3052,-3.2398637377595656,0.48197181305977327,-0.29002509120199077,-0.011930158895632046,-2.192725373211951,-0.6855224986664314,kiss
3063,-3.275129460208701,0.47204213737437856,-0.33637721293307127,-0.00820288662751552,-2.1529765080454726,-0.732922084463697,kiss
3074,-3.312334987880778,0.48569628868374903,-0.36276478278022267,-0.019384703431865102,-2.126477264601153,-0.7973855696074915,kiss
3086,-3.3557409076975393,0.5092767267107036,-0.3774491890806891,-0.02683924796809815,-2.104054834263114,-0.8315132751091776,kiss
3097,-3.4111602857198764,0.5307865054053112,-0.3985603727929955,0.0029789199988976577,-2.00111532420279,-0.706378323872538,kiss
3108,-3.467354315909803,0.5742262948030553,-0.4219648201620568,0.061994055762462336,-1.9032719599394727,-0.5452197197363188,kiss
3120,-3.501458060107554,0.6060792032559651,-0.4455985938967936,0.15144858001932257,-1.7779101531299164,-0.3632053835853649,kiss
3131,-3.538663587779631,0.4976932347336799,-0.5346279763352203,0.23966065304564693,-1.6392987245982005,-0.2039427579108298,kiss
3143,-3.5572679390176516,0.44101613706728326,-0.5991062795762083,0.29370609584436835,-1.514956116890564,-0.10724760785461453,kiss
3154,-3.5661796137489015,0.4575644668870043,-0.6509641138078093,0.30799396439053467,-1.4191511508310866,-0.09966369400787804,kiss
3165,-3.573154658061177,0.48238526713268054,-0.6860717247235556,0.2980545784608482,-1.3478070300120886,-0.1830869327047232,kiss
3177,-3.585171291070718,0.4683210507182135,-0.7198014977209403,0.27072125188730584,-1.2866550504996963,-0.3120138408647311,kiss
3188,-3.5863332693221026,0.42901919101735236,-0.7526139652556231,0.17567584467311181,-1.1735236663103799,-0.4845482536434737,kiss
3199,-3.5704433754746123,0.37896074748528197,-0.778772208737099,0.1415091737337633,-1.1144099681116213,-0.5167799806834757,kiss
3211,-3.5313012173835605,0.385582790587419,-0.7950637793216025,0.13653948076892006,-1.0481618595008235,-0.5243639255940028,kiss
3222,-3.3875206953925208,0.610217132952848,-0.7943758002245762,0.16387281752039887,-0.9839520822994617,-0.499716143464528,kiss
3233,-3.3041979653171176,0.7024682257283194,-0.7994228599937456,0.20735763350726127,-0.939107204924783,-0.42577279707610344,kiss
3245,-3.277843917599232,0.7459080151260634,-0.8225998607214403,0.24463034601049014,-0.9238191849987837,-0.304429895954204,kiss
3256,-3.337139731263484,0.7413566313562732,-0.8579349182785534,0.27320610345869567,-0.9299343963089035,-0.19256685607693444,kiss
3268,-3.454178879452843,0.7111575391949924,-0.8916665710002468,0.2974333681124849,-0.9431840180310631,-0.1470632798051436,kiss
3279,-3.5952449440533525,0.665237025359805,-0.907728815219075,0.3030242714256915,-0.921780786794944,-0.3309736876091535,kiss
3290,-3.7332123999835027,0.6255217115860366,-0.9022212229942457,0.27196367258403253,-0.8443214546658261,-0.520571937606844,kiss
3302,-3.832425023906396,0.607733019547594,-0.8889127748878323,0.22723641554457064,-0.711825220745629,-0.7215461826298016,kiss
3313,-3.8320376978226007,0.5551938515780803,-0.8978621423221026,0.1800243272895917,-0.5395802051519577,-0.9035606430359181,kiss
3324,-3.738250813876803,0.5634697109718462,-0.933887058700551,0.13467584972383,-0.3581622640522009,-1.0324873958769727,kiss
3336,-3.6316758195578394,0.5965629816434775,-0.9845963813794658,0.1005091889624179,-0.21649323821472544,-1.0438632977108682,kiss
3347,-3.5603665476880115,0.6085599276934084,-1.0337004194986519,0.09616070634593804,-0.13597630877984798,-0.9168325233314977,kiss
3359,-3.542152697337751,0.5949091653518486,-1.075003601736254,0.16014554525228233,-0.08399703769173024,-0.4712763733478942,kiss
3370,-3.558042591185242,0.5634697109718462,-1.105979578621224,0.18561523060279828,-0.06361298885893009,-0.2797821138247291,kiss
3381,-3.594470291885763,0.5303730513324041,-1.1220418228400524,0.18747887182582473,-0.02692173769681163,-0.1660230954857755,kiss
3392,-3.629351863055069,0.5287192350407751,-1.116075577883872,0.1676000897885154,0.028115147395666465,-0.12241546661187815,kiss
3404,-3.65570273596899,0.5965629816434775,-1.0591706838831014,0.1334334188491669,0.10557447952478441,-0.1110395958417734,kiss
3415,-3.6495023438243046,0.6441407007381045,-1.0470088676050653,0.09491828564921131,0.20239864468618182,-0.0977676844824033,kiss
3426,-3.6320631456416343,0.7004009553637832,-1.0511405016358417,0.05640314227131934,0.30533800445909826,-0.07122395495503499,kiss
3437,-3.6076489031466887,0.7190165555480403,-1.0616951536298407,0.024721343259233468,0.39400852670933445,-0.044680194363876005,kiss
3449,-3.590597031047813,0.6846795336898767,-1.0727084583551905,-0.005096834885698749,0.46025665201873334,-0.04278421590219187,kiss
3460,-3.6080362292304837,0.6491021496129912,-1.0784453769456952,-0.09082407669650606,0.5489271909675704,-0.12620745459903704,kiss
3471,-3.6723672819840703,0.6263520086996618,-1.071561826526813,-0.13679375443269468,0.6100793207673699,-0.2039427579108298,kiss
3482,-3.752978729472908,0.6267654627725691,-1.0509111752701663,-0.18089981130172966,0.7018074737205674,-0.2873660587352562,kiss
3494,-3.776618319800264,0.7446676529073417,-0.9632577510257926,-0.2200361446721122,0.8190156209203617,-0.35372549127694425,kiss
3505,-3.7680939711528088,0.8365052916099058,-0.8912079182688959,-0.2467482507193548,0.9596654476559173,-0.3745812854192603,kiss
3517,-3.7522040773053185,0.959372319587376,-0.8460043080905016,-0.2560664364786143,1.1349682108427557,-0.3385576014558901,kiss
3528,-3.674307087207011,1.045421601269239,-0.8673429384441748,-0.249854312639108,1.309251708133271,-0.26840621199083375,kiss
3539,-3.563855657246132,1.069828947442008,-0.9437537315975233,-0.2430209784512383,1.4009797274976619,-0.19256685607693444,kiss
3550,-3.466579663742213,1.0611396339753347,-1.0137377473390317,-0.2573088571753411,1.195101108143434,-0.09207974909735095,kiss
3562,-3.4018581101008656,1.0305270877411468,-1.0272755218111207,-0.2815361218291303,0.9983951137204763,-0.09966369400787804,kiss
3573,-3.3960450440399756,0.9804720331768872,-0.9784008100576099,-0.30638459683128283,0.8506108598742801,-0.09207974909735095,kiss
3584,-3.4619285759327076,0.8919420270575809,-0.7987348808967192,-0.32005126520702226,0.8088235965039616,-0.008656510400505796,kiss
3596,-3.4522422490338682,0.8911151189117664,-0.7255384163114451,-0.30514217613455613,0.87812931911912,0.17525386633971352,kiss
3607,-3.430148788237727,0.8542939836483485,-0.6828592758797901,-0.2566876468269777,1.0187791458546755,0.4350035679300415,kiss
3618,-3.4297614621539316,0.8154089669882054,-0.6757463990952324,-0.19580889019625938,1.2032547176573933,0.7080251498159489,kiss
3630,-3.4154240474455864,0.8509863510650908,-0.709476172092617,-0.15108162297886105,1.3979221301919023,0.905207375787957,kiss
3641,-3.385193564085785,0.9287597733531879,-0.7712006792211903,-0.17530888763265026,1.5569175908578174,0.9317511674429066,kiss
3652,-3.4138747431104064,1.0052928334225635,-0.8253517771095462,-0.22376341694022872,1.4600934256964202,0.8521198546056391,kiss
3664,-3.463090554184093,1.0441812390505172,-0.804930452218575,-0.270975515373144,1.3286165411655508,0.7592167236003734,kiss
3675,-3.3933337614534107,0.9999145415069588,-0.5293515902003754,-0.30886944840267266,1.2735796393744716,0.6871693246098423,kiss
3686,-3.393721087537206,0.9378591519249575,-0.4061319023089041,-0.328748230439982,1.372442202739709,0.6644175209420515,kiss
3698,-3.441778095163473,0.9200704598865148,-0.3439487424489799,-0.31570278259054235,1.6292809107787354,0.6966492479820535,kiss
3709,-3.4658050115746235,0.8973203189731855,-0.29438605159844267,-0.26476340171157414,1.9870207139756457,0.7592167236003734,kiss
3720,-3.4646430333232385,0.8667043837711866,-0.239315768523076,-0.1982937417676492,2.379413503719641,0.840744014899325,kiss
3732,-3.447591161224363,0.8807719891534643,-0.2207290545575087,-0.09952104192946583,3.0897968307276478,0.9848386886252246,kiss
3743,-3.377831193689715,0.9117979894605597,-0.24275754373251718,-0.06659680186478044,3.280387563744683,0.9867346670869087,kiss
3754,-3.2588522402774163,0.9180031895219787,-0.2620322367951109,-0.044233178434017674,3.3282900384251213,0.9507109831235385,kiss
3766,-2.94416249640986,0.9647506115029807,-0.16474146601944029,-0.03180894093294139,3.284464360152363,0.903311397326273,kiss
3777,-2.7627891206629482,1.0292867255224252,-0.05620806415274413,-0.013793800118658514,3.2121010402314445,0.8710797013500616,kiss
3788,-2.6472992768087695,1.015222509107958,0.03557511439809721,0.0296910362240767,3.1703137768611263,0.8729756798117457,kiss
3799,-2.6224977082300285,0.9399298112573042,0.09339919358587838,0.09802433739102809,3.1866209958890455,0.9071033542496412,kiss
3811,-2.6410988846640837,0.886150281069069,0.1186401316046524,0.1700849413599052,3.2579651167080432,0.9279591794557477,kiss
3822,-2.6438133420546146,0.8485022376598368,0.12001608979870543,0.2669939796191893,3.402691756549879,0.7895524721786912,kiss
3833,-2.5775424840780867,0.7579049611759944,0.12644098748623653,0.2787970067719022,3.3741541149017205,0.6890653030715265,kiss
3845,-2.433761962087047,0.6333841169068952,0.1544357216174253,0.2676151899675527,3.2905795714624824,0.6435617267997356,kiss
3856,-2.0869051044407145,0.4612855535431693,0.22992732958376308,0.23717581165219348,3.1927362071991654,0.649249662184788,kiss
3867,-1.9187071651507634,0.4691479588640279,0.27650689795621025,0.2042515715875081,3.0897968307276478,0.6738974443142628,kiss
3879,-1.7741519909921333,0.5365782513938231,0.3297425701061728,0.19244854443479514,2.973607832533971,0.713713116264792,kiss
3890,-1.6702882792597344,0.6457945170297333,0.3907772184134109,0.21729702961488415,2.834996404002255,0.7819685272681641,kiss
3901,-1.589292680491067,0.726878960868899,0.45594350075142537,0.2763121552005124,2.690270014639432,0.876767636735114,kiss
3912,-1.5028681669413388,0.7703153612988325,0.498851967548756,0.45956966597484,2.5129289200431564,1.0739498937709127,kiss
3924,-1.3873783230871597,0.7678346368613891,0.5057355179676382,0.5508878212767903,2.4752184530805175,1.0777418817580717,kiss
3935,-1.2308065159189887,0.6623428468494545,0.48278972332992787,0.604312043549212,2.4262967792981596,0.9905266240102769,kiss
3946,-1.070748773996663,0.48114490491395884,0.4499772557952451,0.5869181130832924,2.350875845372881,0.8350560484504821,kiss
3958,-0.8777492661279712,0.09682578827545264,0.4878386628234061,0.48069086870887606,2.2652629037298038,0.6625215424803674,kiss
3969,-0.8312447376408496,0.04842116103501121,0.5360253954798906,0.30861517473889805,2.2092068195354058,0.5392826318329932,kiss
3980,-0.7731109022279824,0.11833556697006033,0.5679205575518713,0.13281220850080352,2.18168824340036,0.4805071752656229,kiss
3991,-0.7134309372839007,0.2395487786559016,0.5757214134334555,0.00981225418676736,2.143977776437721,0.46154732852120045,kiss
4003,-0.6626594722671035,0.39964700700188593,0.5621836389613665,-0.0057180452340621045,1.918734190462407,0.4312116110066732,kiss
4014,-0.6099545516352969,0.5229274890522634,0.536713374576917,0.07317587256681192,1.7454699089724124,0.3572682646182487,kiss
4025,-0.554147847529165,0.4774204292899832,0.5252395373959075,0.14088796338539994,1.5844360334040566,0.27384499485761293,kiss
4036,-0.5119039059637882,0.3210466765679744,0.5447435568241766,0.153933421412776,1.4896502831450997,0.2454052558047698,kiss
4048,-0.5359308223749389,0.1911475403832708,0.653508164780857,0.12411524326784379,1.4794582587286995,0.27384499485761293,kiss
4059,-0.5405819101844442,0.22093317847164445,0.6941214881971239,0.09553949599757468,1.5395911560293778,0.27763695178098113,kiss
4070,-0.5235300380855686,0.2370646652506475,0.6810423664563858,0.10113039931078126,1.6282617116768157,0.2302373970475062,kiss
4081,-0.4774128356822422,0.21844906506639036,0.6454761028092884,0.13467584972383,1.6832985967692937,0.20558961491803135,kiss
4093,-0.3995158455839345,0.21679524877476153,0.6034849414746598,0.15641827298416583,1.677183385459174,0.19421371308413599,kiss
4104,-0.28014956608784003,0.23127291926213572,0.5536929242584471,0.14834251809956941,1.5192071238951783,-0.025720347619453528,kiss
4115,-0.18442605172306686,0.19404171889362135,0.5289125186953328,0.12349403291948043,1.388749304877422,-0.0977676844824033,kiss
4127,-0.13559439192921005,0.1481212050584339,0.540613802517709,0.09243343407782151,1.2542148063421923,-0.09207974909735095,kiss
4138,-0.07823520868393266,0.17832029721971474,0.6156467577526957,0.07814556553165514,1.1074497015021134,-0.037096249453348856,kiss
4149,-0.07668590434875279,0.21472797841022542,0.6337748189869122,0.09056980303273143,0.9413198137255576,0.02926318308833919,kiss
4160,-0.07746055651634273,0.23747811932355478,0.6202370445148232,0.12349403291948043,0.7670363331336431,0.05580694367949814,kiss
4172,-0.09800153817333862,0.22879219482469237,0.5855880863304278,0.16697887944015202,0.6029449103553303,0.023575216639496174,kiss
4183,-0.13365458670626965,0.17211509715829576,0.5461213947425383,0.1974182475775748,0.46025665201873334,-0.07311993341671906,kiss
4194,-0.16465972223366093,0.09061719924622288,0.5151435381332596,0.18499402025443493,0.30533800445909826,-0.35941342666199666,kiss
4205,-0.17202209262973103,0.004984760605077769,0.4917390907641983,0.1620091864753088,0.307376402662938,-0.4447326127567353,kiss
4217,-0.13326726062247463,-0.03762473167904116,0.4795772744861623,0.1551758522874391,0.350182898532378,-0.4200848306272605,kiss
4228,-0.05731007574710739,0.019048977019544718,0.47384223561996625,0.19120612373806847,0.4042005511257346,-0.30063793903083574,kiss
4239,0.12290132174841921,0.13364353457105968,0.44745466577281484,0.2676151899675527,0.42764219726429425,-0.14137531335630066,kiss
4251,0.18568624497079173,0.12081968037531433,0.46168041934193027,0.34340306620454625,0.390950929403575,-0.0010725654899786767,kiss
4262,0.23374007779309308,0.10551171277431497,0.4687932961264878,0.38502427150219143,0.32979884969957785,0.08614266119402536,kiss
4273,0.27094560546516955,0.0633156745631033,0.4577799914011381,0.3800545683594118,0.28699237052873866,0.0956225845662366,kiss
4284,0.28722282539645516,0.02360036078933501,0.4580093177668135,0.3297364080067433,0.26355072439017896,0.036847096935075666,kiss
4296,0.2953598479601152,0.024427268935149345,0.47131776587322716,0.16635766909178867,0.25845472888057974,-0.14327129181798473,kiss
4307,0.3174501339522909,0.013257231031033023,0.468334643395137,0.05888799384270916,0.24112829405213998,-0.24565440832304303,kiss
4318,0.3531063572891876,-0.004531461007409702,0.45961460232654194,-0.059142267506483784,0.1758993845432618,-0.3385576014558901,kiss
4329,0.3678342728852933,0.10385789648268612,0.506196050423298,-0.1405210267008112,0.08213283338622472,-0.3897491441765239,kiss
4341,0.32093924351041125,0.1290921508012696,0.5234049264705034,-0.15418768489861423,-0.009595302868371833,-0.39543711062536685,kiss
4352,0.2507919498919686,0.09351476672438414,0.5408431288833846,-0.12312708605695528,-0.08501623679365009,-0.3726853069575761,kiss
4363,0.18917217972494657,0.040562144681963216,0.5649374350737812,-0.08833922512511626,-0.1298610974697281,-0.3290776780836788,kiss
4374,0.16320545809085543,-0.0008069853834339277,0.5871933708901562,-0.07094529465919672,-0.1278226992658884,-0.26840621199083375,kiss
4386,0.1601068494204957,-0.02811189903436431,0.6057800848557235,-0.08958164582184296,-0.05138258293729116,-0.12999941152240524,kiss
4397,0.17328228587745592,-0.0028742557479700384,0.6223009818059027,-0.09579376966134931,-0.011633717770812351,-0.05036812974892835,kiss
4408,0.18801020147356162,0.05007836629445088,0.6383632260247306,-0.08336953216027301,0.027095948293746622,0.03305514001170742,junk
4419,0.19111198494788698,0.08441199918480392,0.6555721020719365,-0.060384688203210496,0.055633589941905516,0.09751856302792072,junk
4431,0.23296542562550315,0.12288695073985044,0.6613090206624409,-0.04050590616590115,0.05869120394626587,0.13354224699129094,junk
4442,0.2546683855338839,0.15060531846368808,0.6585552245500266,-0.02932408936155157,0.0199615378817069,0.1468141272868704,junk
4453,0.2519571029473191,0.1820447728436905,0.6638334904091803,-0.018763493083501746,-0.05545937934497052,0.15819002912076577,junk
4464,0.21862483611319244,0.20024691895504038,0.6613090206624409,0.0023577096505343043,-0.14005312188612817,0.18473378971192472,junk
4476,0.16902169895571115,0.21886251913929763,0.6385925523904062,0.03838800145703647,-0.21241644180704608,0.2245494305986632,junk
4487,0.11204984179422879,0.2093496864946208,0.6151881050213449,0.14213039426006305,-0.27764536801452505,0.2947008200637195,junk
4498,0.03182889519315128,0.1233004048127577,0.6110583507148774,0.15766069368089253,-0.2429924983576455,0.3041807123721401,junk
4509,-0.05614492269175691,-0.01652840705734054,0.6184005538651105,0.10734252315028761,-0.15126432870584727,0.27763695178098113,junk
4521,-0.14876982838617034,-0.08809662928401871,0.6539668175122078,0.015403157499973945,-0.02692173769681163,0.23592533243255856,junk
4532,-0.1456712197158105,-0.01611495298443347,0.6640628167748557,-0.06783923273944355,0.08315204918674539,0.1961096915458201,junk
4543,-0.11854251983033451,0.035183852766358596,0.663374837677829,-0.12374829640531865,0.13513132027486313,0.16956593095466113,junk
4554,-0.09180114602865343,0.09144749635984803,0.6532788384151816,-0.15791495716673074,0.11372808903874396,0.1600860075824499,junk
4566,-0.0743619478459829,0.14522702654808345,0.6287258794934338,-0.16536950170296383,0.039326370913986386,0.17146190941634523,junk
4577,-0.08056233999066809,0.15846433481673589,0.5929302894806611,-0.0752937772756766,-0.1115154802379693,0.2454052558047698,junk
4588,-0.1158280624398041,0.1435698212886438,0.574574781605078,-0.014415010467021866,-0.1257842843634479,0.2890128536148765,junk
4599,-0.16349774398227598,0.09889305863998876,0.59247163674931,0.020994070991116942,-0.08501623679365009,0.31934860219319433,junk
4611,-0.19333772645431685,0.04924806918082555,0.617712574768084,0.030312246572440058,-0.01265291687273219,0.33451646095045795,junk
4622,-0.1875246603934267,0.029392106777846896,0.6213836763432007,0.022857702036207,0.052575992636145985,0.3402043963355103,junk
4633,-0.19023911778395702,0.02897865270493964,0.6223009818059027,0.005463771570287476,0.09232485780262481,0.33830841787382615,junk
4644,-0.18636268214204174,0.037664577203801966,0.6174832484024085,-0.01503622081538522,0.11168969083490429,0.3307245040270897,junk
4655,-0.16776150570798626,0.05959119893912754,0.6071579227740852,-0.036157423549421266,0.10863207683054392,0.30797270035929897,junk
4667,-0.14993180663755523,0.10137378307743213,0.5984378817054904,-0.0547937848900039,0.07805603697854535,0.28332491822982414,junk
4678,-0.1491571544699653,0.13612425900850306,0.5959134119587512,-0.06349075012296367,-0.028960152599252147,0.27384499485761293,junk
4689,-0.16620902656884085,0.1481212050584339,0.6023383096462823,-0.04920287139886092,-0.06259378975701024,0.28522089669150824,junk
4700,-0.18326089866771642,0.15349949697403853,0.6094511864308401,-0.024975606745071693,-0.060555391553170565,0.29849277698708776,junk
4711,-0.19178842211913694,0.15019186439078083,0.617712574768084,-0.0019907729659455766,-0.02692173769681163,0.30607672189761487,junk
4723,-0.2003159455705575,0.09971996678580328,0.6346921244496141,0.009191043838404002,0.02505755008990694,0.31745262373151023,junk
4734,-0.18985179170016206,0.09103404228694076,0.6218423290745517,-0.0007483522692188698,0.07397922387226516,0.3212445806548785,junk
4745,-0.16853615787557624,0.11047655061701234,0.6083045546024627,-0.02683924796809815,0.09232485780262481,0.3098686788209831,junk
4756,-0.1491571544699653,0.1493615672771557,0.5975205762427883,-0.0547937848900039,0.0790752360804652,0.2890128536148765,junk
4767,-0.13791834843197992,0.17832029721971474,0.5828342902180133,-0.07280892570428678,0.04849917952986579,0.27384499485761293,junk
4779,-0.13326726062247463,0.1944551729665286,0.5686085366488978,-0.07467256692731325,-0.038132944516530716,0.27574097331929703,junk
4790,-0.13365458670626965,0.2068655730893667,0.5571346994678882,-0.061627119077873604,-0.0789010254835302,0.28332491822982414,junk
4801,-0.14954448055376027,0.1907306973425529,0.5442849040928256,-0.052930143666977444,-0.10234267162208988,0.28522089669150824,junk
4812,-0.18403872563927187,0.16839401050213082,0.54107245524906,-0.0479604507021342,-0.09928505761772954,0.28332491822982414,junk
4823,-0.23247988454536817,0.1762530268551786,0.5731969436867164,-0.0398846958175378,-0.0676898019652103,0.27384499485761293,junk
4835,-0.24798245230906385,0.16673680524269113,0.5883418824428425,-0.028081668664824862,-0.015710514178491713,0.2605731145620334,junk
4846,-0.254182844453749,0.15515331326566736,0.5881125560771668,-0.021248344654891567,0.04136476911782607,0.2510931911898222,junk
4857,-0.253408192286159,0.15101877253659515,0.5823756374866622,-0.02932408936155157,0.08009443518238503,0.23782131089424266,junk
4868,-0.24875710447665378,0.1617753563678044,0.5816876583896358,-0.0479604507021342,0.09130565870070496,0.22075747367529494,junk
4879,-0.23868027669005334,0.17707993500099314,0.5819169847553112,-0.05168772297025073,0.07499842297418499,0.2036936053925566,junk
4891,-0.22589216631688805,0.18328513506241217,0.5752627607021045,-0.025596827271371445,0.053595191738065824,0.2169655167519267,junk
4902,-0.21387870811131274,0.1762530268551786,0.5626422916927175,0.007327412793313941,0.0199615378817069,0.23592533243255856,junk
4913,-0.22434286198170814,0.15473985919276032,0.5578226785649146,0.035281949715219696,-0.01265291687273219,0.25298916965150625,junk
4924,-0.24410601666714857,0.14522702654808345,0.5672306987305361,0.05640314227131934,-0.022844941289132267,0.26626104994708577,junk
4935,-0.2576719540118693,0.12826524265545505,0.5729676173210407,0.06820617960196868,-0.0004224942524924265,0.2681570594725605,junk
4947,-0.2572846279280743,0.1253676751772938,0.5773266979931839,0.06820617960196868,0.04238396821974591,0.2605731145620334,junk
4958,-0.24062008191299378,0.13777807530013192,0.5823756374866622,0.05888799384270916,0.08519044739058508,0.24161329888140157,junk
4969,-0.21038959855319242,0.14440011840226893,0.5798511677399231,0.04584254599326952,0.10863207683054392,0.21886149521361084,junk
4980,-0.1828735725839214,0.14522702654808345,0.5695258421115996,0.019130429768090474,0.09334405690454464,0.20748559337971548,junk
4991,-0.1665963526526358,0.1572239725980143,0.5612644537743557,0.007327412793313941,0.07194082566842548,0.2036936053925566,junk
5003,-0.15923398225656574,0.160531605181272,0.5525462924300696,-0.005096834885698749,0.049518378631785626,0.19421371308413599,junk
5014,-0.15380824227947051,0.18287168098950493,0.5429089458987727,-0.014415010467021866,0.028115147395666465,0.1790458543268724,junk
5025,-0.16388507006607098,0.19942001080922597,0.5518583133330431,-0.013172589770295158,0.012827127469667179,0.16577394296750225,junk
5036,-0.17938763782976666,0.19238790260199248,0.56149565986434,-0.0019907729659455766,0.00875031436338698,0.1525020626719228,junk
5047,-0.18558802997445178,0.16673680524269113,0.565854740536483,0.010433464535130712,0.018942338779787057,0.13543822545297504,junk
5059,-0.18481337780686183,0.1402621887053861,0.5702138212086262,0.01975165029439023,0.04136476911782607,0.1259583020807638,junk
5070,-0.18403872563927187,0.12702488043673346,0.5849001072334014,0.025342553607596817,0.06786401256214528,0.12785428054244793,junk
5081,-0.1871373343096317,0.1233004048127577,0.6027969623776334,0.022857702036207,0.08009443518238503,0.14491814882518628,junk
5092,-0.1886866386448116,0.0984796045670815,0.6085338809681382,0.00608498191865083,0.05665280574242619,0.1468141272868704,junk
5103,-0.19566485776105225,0.06414258270891783,0.6096805127965157,-0.01503622081538522,0.02199993608554658,0.15819002912076577,junk
5115,-0.2286066237074184,0.08193127474736055,0.6133516143716322,-0.0262180376197348,-0.010614518668892504,0.188525746635293,junk
5126,-0.24410601666714857,0.08648265851715066,0.6128929616402812,-0.02746045831646151,-0.035075347210771206,0.2245494305986632,junk
5137,-0.25883393226325424,0.08730956666296517,0.6115170034462282,-0.0262180376197348,-0.04322895672473076,0.2435092773430857,junk
5148,-0.254182844453749,0.09186095043275529,0.6030262887433088,-0.023733186048344984,-0.01774892908093223,0.23592533243255856,junk
5159,-0.2348070158521036,0.09020374517331561,0.5986672080711658,-0.016899851860475282,0.039326370913986386,0.21886149521361084,junk
5171,-0.21698049158563806,0.09351476672438414,0.6014210041835805,0.0023577096505343043,0.15959216551534264,0.22265345213697907,junk
5182,-0.19992544468279697,0.1063386209201295,0.6002724926308942,0.0029789199988976577,0.18303381165390234,0.23402935397087443,junk
5193,-0.1801622899973566,0.12247349666694336,0.5871933708901562,-0.006960465930788812,0.1708033890336626,0.23402935397087443,junk
5204,-0.16039596050795069,0.12371385888566495,0.570672473939977,-0.021248344654891567,0.13309292207102344,0.2302373970475062,junk
5215,-0.1503191327213502,0.1481212050584339,0.5731969436867164,-0.025596827271371445,0.08620964649250491,0.23592533243255856,junk
5227,-0.16349774398227598,0.16466953487815503,0.5761800661648065,-0.015657431163748573,0.04646078132602611,0.25298916965150625,junk
5238,-0.17900031174597164,0.16425608080524778,0.5713623327613123,-0.0007483522692188698,0.016903940575947376,0.2700530379342446,junk
5249,-0.18636268214204174,0.16260226451361892,0.567689351461887,0.0017364993021709509,-0.0034800915582519475,0.2643650714854016,junk
5260,-0.191013769951547,0.17128818901248125,0.5644769026181213,-0.00820288662751552,-0.02080652638669175,0.24161329888140157,junk
5271,-0.1979888142638221,0.16880746457503787,0.5539222506241225,-0.005096834885698749,-0.04628657072909111,0.21886149521361084,junk
5283,-0.20690366379903763,0.1390218264866643,0.5458920683768629,0.005463771570287476,-0.04526737162717128,0.22644540906034732,junk
5294,-0.21542801244649265,0.0984796045670815,0.5502511490490058,0.009191043838404002,-0.022844941289132267,0.23782131089424266,junk
5305,-0.21698049158563806,0.06745360425998634,0.5589711901176009,0.004221350873560769,0.014865525673506859,0.2454052558047698,junk
5316,-0.19760148818002712,0.05959119893912754,0.5713623327613123,-0.011930158895632046,0.04646078132602611,0.2454052558047698,junk
5328,-0.19023911778395702,0.10261414529615372,0.5757214134334555,-0.03677863389778462,0.05665280574242619,0.23213337550919033,junk
5339,-0.1871373343096317,0.14067564277829317,0.5791631886428966,-0.05976347785484713,0.0372879727101467,0.20748559337971548,junk
5350,-0.1944997047057018,0.1572239725980143,0.5869640445244808,-0.07280892570428678,0.0036543188537877715,0.1809418327885565,junk
5361,-0.20767831596662756,0.16342917265943324,0.5961427383244267,-0.07405134640101349,-0.02080652638669175,0.15819002912076577,junk
5373,-0.21891712200461294,0.17046128086666693,0.5975205762427883,-0.04112711651426451,-0.016729713280411552,0.15819002912076577,junk
5384,-0.23286721062916318,0.17211509715829576,0.5906351460995973,-0.01503622081538522,-0.0014416933544122669,0.17525386633971352,junk
5395,-0.23945810366160883,0.1741857564906425,0.5844414545020503,0.010433464535130712,0.018942338779787057,0.19231773462245186,junk
5406,-0.2320925584615732,0.17335884834482818,0.5800804941055985,0.027206194830623285,0.04544158222410627,0.19231773462245186,junk
5417,-0.20651633771524266,0.13198632931162022,0.5656254141708076,0.028448615527349994,0.07296002477034531,0.1809418327885565,junk
5429,-0.19256307428672692,0.13860837241375706,0.5605764746773293,0.012918316106520531,0.08824804469634459,0.16387796450581815,junk
5440,-0.1828735725839214,0.16839401050213082,0.5543809033554734,-0.012551369243995402,0.08417124828866523,0.14112619190181805,junk
5451,-0.17473655002026137,0.18328513506241217,0.5474973529365913,-0.0330513616296681,0.059710403048185715,0.11458240024686844,junk
5462,-0.1782256595783817,0.175012664636457,0.5445142304585012,-0.03677863389778462,0.0240383509879871,0.09941454148960484,junk
5473,-0.19256307428672692,0.15060531846368808,0.5472680265709157,-0.018763493083501746,-0.03303694900693151,0.09372657504076184,junk
5485,-0.2088402942180125,0.1187490210429676,0.5548414358111333,-0.01503622081538522,-0.040171359418971236,0.09372657504076184,junk
5496,-0.22201573067497277,0.0947551289431059,0.5631009444240684,-0.013172589770295158,-0.035075347210771206,0.10510250793844785,junk
5507,-0.23907077757781386,0.0959954911618275,0.567689351461887,-0.010687738198905339,-0.02692173769681163,0.1259583020807638,junk
5518,-0.2506969096995942,0.11006309654410527,0.5761800661648065,-0.0044756143593989925,-0.022844941289132267,0.1525020626719228,junk
5529,-0.2565099757604844,0.11792211289715307,0.5888005351741935,0.004842561221924123,-0.02080652638669175,0.17146190941634523,junk
5541,-0.254182844453749,0.10385789648268612,0.5977499026084637,0.012918316106520531,-0.015710514178491713,0.18283781125024062,junk
5552,-0.25030958361579925,0.09516858301601298,0.6000431662652186,0.013539526454883885,-0.004499307358772625,0.1904217250969771,junk
5563,-0.24410601666714857,0.1030309883368718,0.5945374537646982,0.004221350873560769,0.00875031436338698,0.19421371308413599,junk
5574,-0.23635632018728348,0.12578112925020107,0.5871933708901562,-0.02683924796809815,0.018942338779787057,0.1733578878780294,junk
5585,-0.23170523237777824,0.15432640511985304,0.5869640445244808,-0.03180894093294139,0.02199993608554658,0.1600860075824499,junk
5597,-0.23170523237777824,0.16590989709687662,0.5901764933682463,-0.02683924796809815,0.03117276140002682,0.1543980411336069,junk
5608,-0.23364503760071864,0.1468808428397123,0.5956840855930756,-0.016278641512111926,0.039326370913986386,0.1543980411336069,junk
5619,-0.24100740799678874,0.13612425900850306,0.6027969623776334,-0.0057180452340621045,0.04238396821974591,0.1600860075824499,junk
5630,-0.25185888795097916,0.13488389678978147,0.6053214321243725,0.006706192267014183,0.043403184020266584,0.17525386633971352,junk
5642,-0.2596085844308442,0.1220600425940361,0.5991258608025168,0.017888009071363762,0.04544158222410627,0.1904217250969771,junk
5653,-0.26193571573757957,0.09682578827545264,0.5922423103836345,0.019130429768090474,0.049518378631785626,0.19421371308413599,junk
5664,-0.25999591051463916,0.07655298283175593,0.5963720646901021,-0.006960465930788812,0.06480641525638575,0.1904217250969771,junk
5675,-0.2561226496766894,0.08524229629842907,0.6062387375870745,-0.019384703431865102,0.08009443518238503,0.19990164846918837,junk
5686,-0.25030958361579925,0.10385789648268612,0.6076165755054362,-0.02683924796809815,0.0902864429001843,0.20938157184139958,junk
5698,-0.24488384363870402,0.11006309654410527,0.6073872491397608,-0.029945309887851327,0.09130565870070496,0.21506950722645196,junk
5709,-0.22318088373032324,0.11916247511587486,0.5931596158463365,-0.030566520236214683,0.08722884559442476,0.21317352876476783,junk
5720,-0.21155475160854284,0.127851788582548,0.5754920870677799,-0.028702879013188215,0.07397922387226516,0.21886149521361084,junk
5731,-0.20806564205042258,0.13364353457105968,0.566313393267834,-0.02186955500325492,0.053595191738065824,0.23782131089424266,junk
5742,-0.20845296813421754,0.11833556697006033,0.5665427196335097,-0.006960465930788812,0.039326370913986386,0.2605731145620334,junk
5754,-0.21232940377613282,0.08317163696608214,0.5697551684772751,0.009191043838404002,0.040345570015906225,0.28332491822982414,junk
5765,-0.21891712200461294,0.047180798816289435,0.571591659126988,0.00608498191865083,0.07601762207610484,0.3231405591165626,junk
5776,-0.2305432541263933,0.022359998570613233,0.5741142491494182,-0.018142282735138394,0.09130565870070496,0.33262048248877385,junk
5787,-0.245271169722499,0.03187283121529008,0.5826049638523376,-0.04858166105049756,0.09334405690454464,0.33262048248877385,junk
5799,-0.24953175664424374,0.08151782067445329,0.5975205762427883,-0.0672180223910802,0.08315204918674539,0.3288285255654056,junk
5810,-0.23907077757781386,0.18742306475929513,0.5984378817054904,-0.06597560169435349,0.059710403048185715,0.3288285255654056,junk
5821,-0.23596899410348848,0.21431113536950744,0.5888005351741935,-0.045475599130744386,0.027095948293746622,0.33451646095045795,junk
5832,-0.23596899410348848,0.2047983027248306,0.583751595680715,-0.012551369243995402,-0.0004224942524924265,0.3458923627843533,junk
5843,-0.23364503760071864,0.17707993500099314,0.5773266979931839,0.020994070991116942,-0.008576103766451994,0.3553722861565646,junk
5854,-0.2309305802101883,0.15639706445219978,0.5720503118583389,0.04646375634163288,0.0016159039513472541,0.36295623106709163,junk
5866,-0.23015592804259832,0.13364353457105968,0.5736555964180672,0.04770617703835958,0.04849917952986579,0.3439963843226692,junk
5877,-0.22782879673586293,0.11254382098154844,0.5775560243588593,0.016024378026273704,0.08111363428430488,0.30797270035929897,junk
5888,-0.21698049158563806,0.11130345876282687,0.5787045359115457,-0.0262180376197348,0.10557447952478441,0.2643650714854016,junk
5899,-0.19682683601243717,0.12288695073985044,0.5777872304488436,-0.062248329426236954,0.11067049173298445,0.22644540906034732,junk
5910,-0.16117061267554061,0.16756710235631628,0.5784752095458701,-0.0821271012856099,0.09538245510838432,0.20558961491803135,junk
5922,-0.1584593300889758,0.19238790260199248,0.5748041079707534,-0.08026347024051983,0.06684481346022543,0.19990164846918837,junk
5933,-0.16465972223366093,0.19693928637178268,0.576409392530482,-0.05727863646139372,0.039326370913986386,0.21317352876476783,junk
5944,-0.18054961608115155,0.17542611870936428,0.5867347181588052,-0.020627124128591807,0.0240383509879871,0.23782131089424266,junk
5955,-0.19760148818002712,0.13612425900850306,0.58948851427122,0.015403157499973945,0.03117276140002682,0.2681570594725605,junk
5966,-0.20457653249230223,0.10716552906594401,0.5851294335990768,0.02906982587571335,0.0770368378766255,0.30228473391045596,junk
5978,-0.20341455424091728,0.0959954911618275,0.5816876583896358,0.007327412793313941,0.0902864429001843,0.2965967985254036,junk
5989,-0.19760148818002712,0.1084058912846656,0.5787045359115457,-0.018142282735138394,0.09130565870070496,0.28142893976814,junk
6000,-0.1890739647286066,0.1448135724751762,0.5782458831801947,-0.036157423549421266,0.0790752360804652,0.2700530379342446,junk
6011,-0.1937250525381118,0.1865961566134807,0.5796218413742474,-0.04050590616590115,0.06276800035394524,0.2719490163959288,junk
6022,-0.199538118599002,0.18493895135404104,0.5761800661648065,-0.029945309887851327,0.04747998042794595,0.28522089669150824,junk
6034,-0.20573851074368713,0.17377230241773525,0.5725089645896897,-0.010687738198905339,0.0372879727101467,0.3041807123721401,junk
6045,-0.21116425072078235,0.15846433481673589,0.5679205575518713,0.007948623141677295,0.03423035870578634,0.32503653757824674,junk
6056,-0.21116425072078235,0.14274291314282928,0.56149565986434,0.017888009071363762,0.0372879727101467,0.33830841787382615,junk
6067,-0.2127167298599278,0.13281662642524536,0.5578226785649146,0.0023577096505343043,0.040345570015906225,0.3364124394121421,junk
6078,-0.2216284045911778,0.13653771308141033,0.5635595971554195,-0.011930158895632046,0.04544158222410627,0.3212445806548785,junk
6090,-0.22550484023309308,0.1617753563678044,0.5718209854926634,-0.020627124128591807,0.059710403048185715,0.2965967985254036,junk
6101,-0.21465336027890267,0.1956955351852503,0.574574781605078,-0.023111975699981625,0.07499842297418499,0.27384499485761293,junk
6112,-0.1890739647286066,0.24823470315476392,0.5849001072334014,-0.02186955500325492,0.07601762207610484,0.25298916965150625,junk
6123,-0.17706050652303124,0.2519591787787397,0.5858174126961033,-0.017521072386775038,0.05869120394626587,0.23782131089424266,junk
6145,-0.1828735725839214,0.23913532458299436,0.5731969436867164,-0.003233193662672286,0.0005967048494274138,0.2169655167519267,junk
6156,-0.1948902055934623,0.21224386500497133,0.5670013723648605,0.004221350873560769,-0.016729713280411552,0.20938157184139958,junk
6167,-0.21349138202751772,0.1799775024791544,0.5699844948429506,0.010433464535130712,-0.004499307358772625,0.20179762693087247,junk
6179,-0.2309305802101883,0.160531605181272,0.5761800661648065,0.007948623141677295,0.015884724775426698,0.1904217250969771,junk
6190,-0.2413947340805837,0.14770775098552683,0.5826049638523376,-0.0007483522692188698,0.029134346497586304,0.16766995249297703,junk
6201,-0.24798245230906385,0.14977841031787356,0.5931596158463365,-0.008824096975878874,0.03423035870578634,0.14491814882518628,junk
6212,-0.253408192286159,0.13695116715431757,0.5959134119587512,-0.012551369243995402,0.03524955780770619,0.1316462685296068,junk
6223,-0.25185888795097916,0.12578112925020107,0.5952254328617246,-0.013172589770295158,0.0332111596038665,0.12785428054244793,junk
6235,-0.24643314797388394,0.117508658824246,0.5959134119587512,-0.00820288662751552,0.0332111596038665,0.13733420391465917,junk
6246,-0.24178206016437867,0.10137378307743213,0.5970600437871286,0.005463771570287476,0.03423035870578634,0.1600860075824499,junk
6257,-0.24023275582919876,0.08151782067445329,0.5993551871681921,0.020372860642753586,0.03219196050194666,0.18473378971192472,junk
6268,-0.24294403841576362,0.07986400438282444,0.6048627793930215,0.02906982587571335,0.029134346497586304,0.2036936053925566,junk
6279,-0.24062008191299378,0.08979029110040836,0.608992533699489,0.02410013291087011,0.040345570015906225,0.20179762693087247,junk
6291,-0.2309305802101883,0.09971996678580328,0.6069267166841009,0.016645588374637057,0.05869120394626587,0.20179762693087247,junk
6302,-0.2216284045911778,0.11998938326168919,0.6046334530273461,0.011054674883494067,0.0790752360804652,0.20558961491803135,junk
6313,-0.1937250525381118,0.15267258882822418,0.6002724926308942,0.011675885231857419,0.09844006911274468,0.20938157184139958,junk
6324,-0.18209892041633147,0.14646738876680504,0.5881125560771668,0.015403157499973945,0.11576650394118447,0.2112775503030837,junk
6335,-0.17551120218785135,0.1435698212886438,0.5748041079707534,0.017888009071363762,0.12493931255706389,0.2112775503030837,junk
6347,-0.17628585435544128,0.14315636721573655,0.567689351461887,0.019130429768090474,0.1229009143532242,0.2112775503030837,junk
6358,-0.1782256595783817,0.13860837241375706,0.5702138212086262,0.01726679872300041,0.11372808903874396,0.2036936053925566,junk
6369,-0.17628585435544128,0.13943528055957158,0.5766387188961573,0.011675885231857419,0.08926724379826444,0.18473378971192472,junk
6380,-0.17357457176887647,0.14522702654808345,0.5770973716275083,0.011054674883494067,0.07499842297418499,0.1809418327885565,junk
6392,-0.17163476654593607,0.14729429691261955,0.5720503118583389,0.014781947151610592,0.060729602150105554,0.18662976817360888,junk
6403,-0.17744783260682623,0.15060531846368808,0.5692965157459242,0.02410013291087011,0.055633589941905516,0.19990164846918837,junk
6414,-0.19140109603534197,0.19280135667489975,0.5709018003056526,0.04149406337678963,0.06174880125202539,0.2112775503030837,junk
6425,-0.19023911778395702,0.17459921056354977,0.5734262700523918,0.059509204191072515,0.07397922387226516,0.21886149521361084,junk
6436,-0.18481337780686183,0.1390218264866643,0.5727382909553653,0.06634253837894222,0.08519044739058508,0.2169655167519267,junk
6448,-0.17551120218785135,0.12288695073985044,0.5725089645896897,0.05888799384270916,0.09436325600646447,0.2036936053925566,junk
6459,-0.17086011437834608,0.11378418320027023,0.571591659126988,0.04087285302842628,0.09538245510838432,0.18473378971192472,junk
6470,-0.16814883179178128,0.10675207499303675,0.5683792102832221,-0.0019907729659455766,0.06888321166406511,0.15629405065908167,junk
6481,-0.1689234839593712,0.1030309883368718,0.567689351461887,-0.016278641512111926,0.055633589941905516,0.1525020626719228,junk
6492,-0.17938763782976666,0.10096032900452487,0.5702138212086262,-0.018142282735138394,0.05461439083998568,0.1543980411336069,junk
6504,-0.1944997047057018,0.10220069122324646,0.5757214134334555,-0.00944531750217863,0.06276800035394524,0.16387796450581815,junk
6515,-0.21581533853028761,0.09558203708892024,0.5917836576522837,0.006706192267014183,0.07092162656650564,0.18473378971192472,junk
6526,-0.2247301880655031,0.08151782067445329,0.5952254328617246,0.019130429768090474,0.0770368378766255,0.20558961491803135,junk
6537,-0.2286066237074184,0.07076123684324405,0.5959134119587512,0.020994070991116942,0.08009443518238503,0.21506950722645196,junk
6548,-0.21930444808840796,0.06372912863601057,0.5885712088085179,0.011054674883494067,0.08519044739058508,0.20558961491803135,junk
6560,-0.20302722815712232,0.0711746909161513,0.5766387188961573,-0.006960465930788812,0.09232485780262481,0.18662976817360888,junk
6571,-0.1894644656163671,0.08979029110040836,0.5651667614394567,-0.033672582155967856,0.08926724379826444,0.1790458543268724,junk
6582,-0.18132426824874154,0.10716552906594401,0.5569053731022126,-0.0330513616296681,0.06990241076598495,0.2036936053925566,junk
6593,-0.17744783260682623,0.12247349666694336,0.552775618795745,-0.020005913780228455,0.04238396821974591,0.2454052558047698,junk
6604,-0.17744783260682623,0.1290921508012696,0.5477266793022667,-0.0013695626175822232,0.015884724775426698,0.28522089669150824,junk
6616,-0.19876346643141207,0.09310131265147688,0.5422209668017464,0.00981225418676736,-0.0055185064606924645,0.30228473391045596,junk
6627,-0.20380188032471225,0.08069091252863878,0.5431382722644481,0.0029789199988976577,-0.01265291687273219,0.29280484160203535,junk
6638,-0.19837614034761708,0.08193127474736055,0.5392378443236562,-0.017521072386775038,-0.002460892456332107,0.2643650714854016,junk
6649,-0.1937250525381118,0.09351476672438414,0.5403844761520336,-0.0398846958175378,0.016903940575947376,0.2302373970475062,junk
6660,-0.19333772645431685,0.11337072912736297,0.5523169660643942,-0.0547937848900039,0.03423035870578634,0.2036936053925566,junk
6672,-0.1890739647286066,0.13819491834085,0.5603471483116538,-0.061627119077873604,0.05665280574242619,0.1809418327885565,junk
6683,-0.18248624650012643,0.16218881044071165,0.5594298428489519,-0.053551354015340794,0.05461439083998568,0.17714984480139762,junk
6694,-0.18093694216494652,0.1650829889510623,0.56149565986434,-0.03491500285269456,0.04747998042794595,0.18283781125024062,junk
6705,-0.17900031174597164,0.16798055642922355,0.5775560243588593,-0.0057180452340621045,0.04238396821974591,0.19800567000750421,junk
6717,-0.17551120218785135,0.15184568068240967,0.5798511677399231,0.025342553607596817,0.036268756909626026,0.21506950722645196,junk
6728,-0.17667318043923627,0.1187490210429676,0.5812290056582847,0.04894860791302269,0.0240383509879871,0.22265345213697907,junk
6739,-0.1782256595783817,0.09351476672438414,0.5860467390617787,0.05826678349434581,0.010788729265827498,0.22075747367529494,junk
6750,-0.1817115943325365,0.08813647480877951,0.59247163674931,0.05391830087786593,0.0067119161595473,0.21317352876476783,junk
6761,-0.18597535605824678,0.09516858301601298,0.5952254328617246,0.03590316006358305,0.014865525673506859,0.2036936053925566,junk
6772,-0.18636268214204174,0.10054687493161761,0.5972912498771129,-0.011308948547268693,0.05869120394626587,0.16577394296750225,junk
6784,-0.18829931256101662,0.10220069122324646,0.6032556151089844,-0.023111975699981625,0.08722884559442476,0.15629405065908167,junk
6795,-0.1937250525381118,0.11047655061701234,0.6083045546024627,-0.02186955500325492,0.11372808903874396,0.1525020626719228,junk
6806,-0.18442605172306686,0.109649642471198,0.5975205762427883,-0.010687738198905339,0.12493931255706389,0.15819002912076577,junk
6817,-0.17900031174597164,0.08813647480877951,0.5915543312866081,0.006706192267014183,0.11882410124694402,0.17525386633971352,junk
6828,-0.17900031174597164,0.07531262061303415,0.5835222693150396,0.026584974304323532,0.09945926821466453,0.1904217250969771,junk
6840,-0.1867500082258367,0.06745360425998634,0.5796218413742474,0.03900921180539982,0.0790752360804652,0.19421371308413599,junk
6851,-0.19566485776105225,0.061661858271474454,0.5853587599647524,0.03900921180539982,0.06990241076598495,0.18662976817360888,junk
6862,-0.19992544468279697,0.062488766417288975,0.5888005351741935,0.03217588779546652,0.08417124828866523,0.18473378971192472,junk
6873,-0.20070327165435248,0.057523928574591425,0.5851294335990768,0.020372860642753586,0.14634254379318304,0.19990164846918837,junk
6885,-0.1960521838448472,0.049664912221543615,0.5809996792926092,0.013539526454883885,0.16876497413122207,0.20179762693087247,junk
6896,-0.1871373343096317,0.056283566355869834,0.5775560243588593,0.00981225418676736,0.18099541345006268,0.20938157184139958,junk
6907,-0.16000863442415567,0.11502793438680263,0.5773266979931839,0.011054674883494067,0.18303381165390234,0.2169655167519267,junk
6918,-0.14450606666046,0.13571080493559579,0.5897178406368954,0.017888009071363762,0.17691860034378246,0.2245494305986632,junk
6929,-0.1270668684777895,0.1390218264866643,0.5975205762427883,0.030312246572440058,0.1677457750293022,0.23782131089424266,junk
6941,-0.11660271460739409,0.12247349666694336,0.5933889422120119,0.04584254599326952,0.15449615330714261,0.24919721272813805,junk
6952,-0.11776786766274452,0.09889305863998876,0.584670780867726,0.053297090529502565,0.12493931255706389,0.24919721272813805,junk
6963,-0.11815519374653949,0.09020374517331561,0.5826049638523376,0.02161528133948029,0.030153562298106982,0.20179762693087247,junk
6974,-0.11117697463029888,0.09806615049417423,0.5871933708901562,0.003600140525197416,0.0005967048494274138,0.17525386633971352,junk
6985,-0.10846569204373402,0.11626829660552422,0.5917836576522837,-0.0007483522692188698,-0.0034800915582519475,0.16198198604413402,junk
6997,-0.1131167798532393,0.12619797229091895,0.5938475949433629,0.004842561221924123,0.014865525673506859,0.16198198604413402,junk
7008,-0.109240344211324,0.10178723715033938,0.5885712088085179,0.011675885231857419,0.04544158222410627,0.16198198604413402,kiss
7019,-0.0937377764476283,0.10261414529615372,0.584670780867726,0.012297105758157179,0.06990241076598495,0.1543980411336069,kiss
7030,-0.07397462176218798,0.11213036690864138,0.5904058197339217,0.0029789199988976577,0.06990241076598495,0.13733420391465917,kiss
7042,-0.06195798875264708,0.10716552906594401,0.5975205762427883,-0.013793800118658514,0.04136476911782607,0.11268642178518432,kiss
7053,-0.060021358333672205,0.09806615049417423,0.6014210041835805,-0.02932408936155157,-0.0055185064606924645,0.09751856302792072,kiss
7064,-0.06505977222697244,0.11130345876282687,0.6076165755054362,-0.021248344654891567,-0.11049628113604945,0.11647837870855257,kiss
7075,-0.06738372872974224,0.12950560487417684,0.6115170034462282,0.014160736803247238,-0.15126432870584727,0.13733420391465917,kiss
7086,-0.061183336585057146,0.1253676751772938,0.6124343089089302,0.060130414539435864,-0.18082118615452683,0.16387796450581815,kiss
7098,-0.05614492269175691,0.10137378307743213,0.6103703716178508,0.10113039931078126,-0.20426281559448567,0.19990164846918837,kiss
7109,-0.0456807688213615,0.03849487431742711,0.5860467390617787,0.1210091813480906,-0.23585808794560578,0.23782131089424266,kiss
7120,-0.026692266303511018,0.036837669057987445,0.5842121281363749,0.10982736454374102,-0.2888565414370425,0.2681570594725605,kiss
7131,-0.0003382185856249556,0.06041810708494205,0.584670780867726,0.08000920675468161,-0.3561238658483612,0.2890128536148765,kiss
7143,0.024850676076910626,0.08813647480877951,0.5800804941055985,0.05391830087786593,-0.42542957176491875,0.3003887554487719,kiss
7154,0.045391657733906514,0.11792211289715307,0.5773266979931839,0.042736484073516344,-0.4998313399854788,0.3041807123721401,kiss
7165,0.06283085591657704,0.15763742667092157,0.5752627607021045,0.05640314227131934,-0.69042198950951,0.27763695178098113,kiss
7176,0.08375916365736785,0.21183041093206406,0.5624129653270421,0.06820617960196868,-0.8280142189393062,0.2302373970475062,kiss
7188,0.10119836184003837,0.2771934330973231,0.5385498652266297,0.0775243551832918,-1.004336114433661,0.1468141272868704,kiss
7199,0.10972588529145891,0.3458674768136506,0.5117017629238184,0.09429707530084797,-1.1969653124489394,0.04253506338391865,kiss
7210,0.06941857414505714,0.309876638663858,0.5208804567237643,0.12038797099972724,-1.3702294770487282,-0.03899225897882366,kiss
7222,-0.009640394204635503,0.21100350278624963,0.5516289869673676,0.14213039426006305,-1.4986488811640442,-0.08259985678893035,kiss
7233,-0.08753738430294321,0.11047655061701234,0.5982085553398148,0.15641827298416583,-1.5577625793628025,-0.061744031582823704,kiss
7244,-0.1557448726984454,0.01946243109245198,0.6374459205620289,0.1688425104852421,-1.5434937585387232,0.031159161550023292,kiss
7255,-0.22046642633979285,-0.08726972113820418,0.6645214695062065,0.13032736710735013,-1.472149637719725,0.23213337550919033,kiss
7266,-0.27433650002694987,-0.1613186678023257,0.6902210602563317,0.0651001176822155,-1.5078217064785242,0.2302373970475062,kiss
7278,-0.3103768746436759,-0.17042143534190593,0.7106423851473028,-0.0044756143593989925,-1.6066842698437613,0.14871010574855453,kiss
7289,-0.3344069658587921,-0.14311652169097572,0.7177552619318606,-0.05603620558673061,-1.763641332305837,0.03305514001170742,kiss
7300,-0.41152930378950986,-0.10712568354118301,0.75768248597541,-0.08647558390208979,-1.9583088617305517,-0.061744031582823704,kiss
7311,-0.4960140121162977,-0.11415779174841649,0.79164158533847,-0.10386952454594571,-2.138707687221393,-0.10724760785461453,kiss
7323,-0.589026243894506,-0.1716617975606277,0.8095403202070108,-0.1150513413502953,-2.24878147410495,-0.08449583525061448,kiss
7334,-0.6820384756727145,-0.25357314954560767,0.8297323187323066,-0.13306648216457817,-2.25999269762327,0.03305514001170742,kiss
7345,-0.7773746639536926,-0.2804646091236308,0.8285838071796201,-0.15605132612164066,-2.1570533211517526,0.254885179176981,kiss
7357,-0.8622498731682411,-0.2382651819446083,0.765024689125643,-0.11008164838545205,-1.8095054087824356,0.6947532695203695,kiss
7368,-0.9199932076933478,-0.1741459109658817,0.6541961438778832,-0.04299075773729097,-1.758545320097637,0.747840821766478,kiss
7379,-0.9610751710073395,-0.14311652169097572,0.5525462924300696,0.0017364993021709509,-1.840081465333035,0.7004412049054218,kiss
7391,-1.1002046051888743,-0.22047648990616558,0.5181266606113497,-0.00261198331430893,-1.9970385277951106,0.6208099231319448,kiss
7402,-1.178488921370977,-0.19565568966048938,0.522716947373477,-0.03553621320105792,-2.172341341077752,0.5790982727197317,kiss
7413,-1.261424325362585,-0.17042143534190593,0.5107844574611164,-0.07094529465919672,-2.348663236572107,0.5847862391685748,kiss
7425,-1.3645133849273938,-0.1989667112115579,0.48944394738313457,-0.10573316576897217,-2.5158123234505827,0.6189139446702608,kiss
7436,-1.480003228781573,-0.2361979115800722,0.47269372406727994,-0.1473543507107445,-2.6360778675729266,0.6587295855569991,kiss
7447,-1.6071192047575324,-0.24364347386021293,0.47774266356075823,-0.26165733979182093,-2.5739068225474213,0.7440488648431097,kiss
7459,-1.7582620971446425,-0.20393154905425526,0.48370890851693854,-0.29396035933020653,-2.364970472298627,0.8160962327698502,kiss
7470,-1.9101828165033081,-0.14642754324204424,0.45410888982602154,-0.28464218374888345,-2.0979396229529943,0.8995194404029047,kiss
7481,-2.1024076722044103,-0.09430182934543765,0.35613013995332427,-0.2442634093259014,-1.834985453124835,0.994318611997436,kiss
7493,-2.158214376310542,-0.07278866168301934,0.30564826391577626,-0.18649071461493624,-1.6056650707418416,1.0929097405153354,kiss
7504,-2.189603663117763,-0.09512873749125218,0.23474506298725706,-0.12436951693161839,-1.4303623743494063,1.1952928259566027,kiss
7515,-2.2194468203937694,-0.11705535922657774,0.1464036596458569,-0.06473317081969038,-1.332519010086089,1.3147398418081901,kiss
7527,-2.2535505645915204,-0.11581499700785616,0.055768992647701625,-0.0057180452340621045,-1.3192693883639297,1.4209149152366167,kiss
7538,-2.3004455939664026,-0.13029266749523036,-0.019724495042944813,0.07814556553165514,-1.4741880359235646,1.3962671331071417,kiss
7549,-2.3539251667657988,-0.20062052750318674,-0.05896186026515888,0.0694486002986954,-1.5587817784647222,1.276820179383136,kiss
7560,-2.408182566536751,-0.29742300404844835,-0.05712536961544616,0.006706192267014183,-1.587319436811482,1.1251414364915464,kiss
7572,-2.4783298601551933,-0.203518094981348,-0.05253696257762757,-0.08274832181190965,-1.5434937585387232,0.9336471459045907,kiss
7583,-2.4725167940943034,-0.06286237496543524,-0.08420091855962403,-0.15108162297886105,-1.460938414201405,0.6928572910586852,kiss
7594,-2.461277988056318,0.024013814862242272,-0.1298631814693692,-0.16785434309641722,-1.3824598829703671,0.4312116110066732,kiss
7606,-2.442673636818297,0.04138905282777774,-0.17713260866315167,-0.14362707844262798,-1.3427110178038884,0.19231773462245186,kiss
7617,-2.4225231560490617,0.03973523653614889,-0.22577799405098697,-0.10883922768872535,-1.3579990544284886,0.006511379420548444,kiss
7628,-2.4093445447881354,0.057523928574591425,-0.28084827712635363,-0.0684604430878069,-1.527186539510804,-0.17171106193461846,kiss
7639,-2.408182566536751,0.10096032900452487,-0.34234157816494265,-0.05789984680975708,-1.6607019558343197,-0.17929497578135495,kiss
7651,-2.4108970239272813,0.15763742667092157,-0.3877745147090123,-0.04174832686262786,-1.8166398191944755,-0.16791907394745959,kiss
7662,-2.465929075865823,0.2370646652506475,-0.4157692488402011,-0.012551369243995402,-1.973596881656551,-0.1660230954857755,kiss
7673,-2.5275488460328455,0.24534052464441342,-0.42770173875256157,0.02906982587571335,-2.105074033365034,-0.19256685607693444,kiss
7685,-2.6085444448015127,0.2420295030933449,-0.44192749232167705,0.0651001176822155,-2.1998597836239906,-0.24755038678472716,kiss
7696,-2.7089222217797566,0.23334357859448257,-0.4511061861216229,0.08311526867443478,-2.2528582705126294,-0.31011786240304695,kiss
7708,-2.8154972160987204,0.19610898925815745,-0.45684122498781893,0.08684254094255132,-2.2538774863131503,-0.3726853069575761,kiss
7719,-2.9356381477624045,0.1580508807438288,-0.4690030412658549,0.05391830087786593,-2.128515662804993,-0.48075629672010556,kiss
7730,-3.0627541237383644,0.17790684314680746,-0.4841479800219812,0.042736484073516344,-2.0204801572350695,-0.5471157292617935,kiss
7742,-3.1580903120193424,0.21389768129660017,-0.4947026320159799,0.04522133564490617,-1.897156748629353,-0.6248510325735863,kiss
7753,-3.2956704418656972,0.20769248123518114,-0.53210538631279,0.05081223895811275,-1.7768909540279965,-0.6950024220386427,kiss
7764,-3.392171783202026,0.22010288135801923,-0.5610155461823718,0.05081223895811275,-1.66579796804252,-0.7537779096698036,kiss
7776,-3.485571341064029,0.24120259494753046,-0.5876343221195076,0.052675880181139216,-1.5557241811589628,-0.8011775265308598,kiss
7787,-3.548353089482436,0.2486481572276712,-0.606677809092117,0.06261526611082568,-1.448708008279766,-0.842889176943073,kiss
7798,-3.559979221604217,0.24368331938497384,-0.6144805446980101,0.07628193448656509,-1.3488262291140083,-0.8656409806108637,kiss
7809,-3.545251306008111,0.22672492446015624,-0.6261818285203863,0.08373647902279814,-1.1388708133521008,-0.8485771123281253,kiss
7821,-3.536726957360656,0.19321481074780691,-0.6578476642266915,0.07379708291517528,-1.015547337951981,-0.8258253086603345,kiss
7832,-3.5258754774064656,0.17335884834482818,-0.6975436821802564,0.06261526611082568,-0.8922239293462644,-0.8011775265308598,kiss
7843,-3.455340857704228,0.2680940545255535,-0.7420593132616242,0.05826678349434581,-0.7821501424627073,-0.7727377874780166,kiss
7855,-3.445651356001423,0.33511089298244146,-0.7638584760709571,0.06137284541409898,-0.6965372008196299,-0.7291301275403287,kiss
7866,-3.4704560993841285,0.3843390394008866,-0.7907046986494596,0.07255466221844856,-0.6465963112367509,-0.6684586614474837,kiss
7877,-3.51463667136848,0.3930283528675597,-0.8186975530563395,0.09243343407782151,-0.6200971345868351,-0.6077871953546387,kiss
7888,-3.5646303094137215,0.3644830769979078,-0.842791859246736,0.11541827803488403,-0.5997131024526358,-0.5565956215702141,kiss
7900,-3.5975720753600884,0.33635125520116305,-0.8554123282561231,0.13094857745571348,-0.5141001608095582,-0.5073000573112644,kiss
7911,-3.6111348379008437,0.31608183872527706,-0.8620665523093298,0.11479706768652066,-0.44377520569527834,-0.522467916068528,kiss
7922,-3.6208243396036486,0.2838120872316494,-0.8698674081909139,0.08311526867443478,-0.3622390771584811,-0.5528036646468459,kiss
7934,-3.627799383915924,0.2515457247058325,-0.8728505306690041,0.042115273725152995,-0.26643414449620517,-0.581243403699689,kiss
7945,-3.605709097923748,0.2838120872316494,-0.8721625515719776,0.003600140525197416,-0.16043715402032752,-0.5945152839952684,kiss
7956,-3.5843934640991626,0.3400757308251388,-0.8815705717375989,-0.021248344654891567,-0.05953619245125072,-0.5679715234041095,kiss
7967,-3.572380005893587,0.3942687150862814,-0.8909785919032204,-0.028081668664824862,0.012827127469667179,-0.49023622009231677,kiss
7979,-3.569668723307022,0.4314999154547957,-0.890288733081885,-0.018142282735138394,0.04747998042794595,-0.3726853069575761,kiss
7990,-3.573154658061177,0.45259962904430684,-0.8762923058784452,0.0004940786054442416,0.05053759443230631,-0.22669456157862056,kiss
8001,-3.5750944632841177,0.4559106505953754,-0.8563296337188249,0.035281949715219696,0.05869120394626587,0.09751856302792072,kiss
8012,-3.578967724122067,0.43274366664132813,-0.8437091647094379,0.04584254599326952,0.10863207683054392,0.23782131089424266,kiss
8023,-3.5960227710249084,0.38475249347379387,-0.8407260422313477,0.04770617703835958,0.19220662026978177,0.3288285255654056,kiss
8035,-3.6146239474589636,0.27388580051406536,-0.8421038801497096,0.03403951884055658,0.29922279314897837,0.36106022154161693,kiss
8046,-3.6305138413064544,0.23582430303192584,-0.8425625328810604,-0.0019907729659455766,0.4205077701536537,0.33262048248877385,kiss
8057,-3.654540757717605,0.2370646652506475,-0.8421038801497096,-0.05417257454164055,0.5530040040738505,0.2605731145620334,kiss
8068,-3.6549280838014,0.2531995409974613,-0.8407260422313477,-0.11008164838545205,0.6936538642066078,0.17714984480139762,kiss
8079,-3.625088101329359,0.26395612482867054,-0.8375135933875822,-0.16288465013157397,0.8271692304343212,0.1259583020807638,kiss
8091,-3.591371683215403,0.282985179085835,-0.8336131654467901,-0.24239976810287492,1.0340671824792755,0.25298916965150625,kiss
8102,-3.5665669398326965,0.3173222009439987,-0.822368654631456,-0.2473694712456546,1.1125457137103134,0.40845980733888254,kiss
8113,-3.556102785962301,0.34669438495946503,-0.7969002699713154,-0.22686946868204547,1.1981587221477943,0.5677223708858363,kiss
8125,-3.571605353725997,0.3640696229250006,-0.7636272699809729,-0.19767253141928584,1.310270907235191,0.6890653030715265,kiss
8136,-3.578967724122067,0.40957668268728076,-0.6762050518265834,-0.17530888763265026,1.443786206668501,0.7668006685109005,kiss
8147,-3.51541132353607,0.4414295911401904,-0.6335259113949282,-0.16847556362271698,1.5752632247881773,0.8388480364376408,kiss
8158,-3.4375143334377625,0.48073145084105157,-0.6250351966920088,-0.17220283589083352,1.6802409994635343,0.9184792560835365,kiss
8170,-3.3677543659031146,0.43770511551621477,-0.6369676866043694,-0.1740664669359236,1.7220282628338528,0.963982863419118,kiss
8181,-3.3421781451567845,0.33759161741988475,-0.6472930122326926,-0.18214223199845636,1.6883946089774937,0.9601909064957498,kiss
8192,-3.3545789294461548,0.24534052464441342,-0.6124147276826218,-0.25482400560395124,1.548763981343858,0.9412310597513273,kiss
8204,-3.3538042772785643,0.22961910297050678,-0.5171897739223393,-0.282778542525857,1.5691480134780573,0.998110568920804,kiss
8215,-3.319697358276848,0.2987066007597416,-0.3898403317244006,-0.26662703275666416,1.714893852421813,1.0985976759003877,kiss
8226,-3.186380990156203,0.3400757308251388,-0.24574066621060733,-0.20823313787527203,1.9778478886611655,1.2445884523431339,kiss
8238,-3.140651113836672,0.3185625631627204,-0.26547401200455206,-0.13306648216457817,2.264243704627884,1.4398747309172484,kiss
8249,-3.1418130920880567,0.2771934330973231,-0.27763582828258804,-0.05665741593509397,2.473180054876678,1.6484327965955707,kiss
8260,-3.1670051615545582,0.2498919084142036,-0.25790248248864334,0.016645588374637057,2.5924266503761144,1.824759228425263,kiss
8271,-3.1968451440265984,0.21679524877476153,-0.22279487157289685,0.08249405832607144,2.6739627956115126,1.9157664430964259,kiss
8283,-3.206147319645609,0.13653771308141033,-0.18057438387259284,0.10672131280192425,2.819708384076256,1.7451279466517857,kiss
8294,-3.1670051615545582,0.03890832839033437,-0.1236676101475135,0.042736484073516344,2.8828988953812944,1.5195059194993534,kiss
8305,-3.116236871341726,-0.02604123970201739,-0.061943103018940154,-0.046718030005407495,2.9695310361262917,1.2597563111003975,kiss
8316,-2.970516544127746,-0.0016338935292484471,0.056915624476079056,-0.12374829640531865,3.1122192777642876,1.0132784276780675,kiss
8328,-2.8174338465176954,0.12371385888566495,0.09477703150424008,-0.16474829135460045,3.3242132253188417,0.8312640915271138,kiss
8339,-2.6248216647327984,0.2552668113619974,0.09936543854205868,-0.1641270810062371,3.5718792416321943,0.7326729630092144,kiss
8351,-2.4562395741630176,0.291674492552508,0.03351117710701775,-0.14362707844262798,3.7879500022930284,0.7288810060858462,kiss
8362,-2.2822285688121764,0.20769248123518114,-0.06148445028758914,-0.14300586809426463,3.8715245457322665,0.774384582357637,kiss
8373,-2.056674621080913,0.0463538906704751,-0.09269163326254345,-0.28588460444561015,3.4434598375168783,0.7061291713542649,kiss
8385,-1.8446866106943707,-0.09885321311522795,-0.030508473402619314,-0.4138542822582988,3.138718521208607,0.5809942822452064,kiss
8396,-1.710982916489931,-0.13856513792118563,0.08100805094216698,-0.5368542060385257,2.9654542230200116,0.44069150331509377,kiss
8407,-1.5656499153597458,0.21638179470185426,0.33203583376292767,-0.6020814656415967,2.9807422596446114,0.32503653757824674,kiss
8419,-1.5075192547508438,0.5158953808450297,0.40064389131038336,-0.5498996640659017,3.167256162856766,0.2890128536148765,kiss
8430,-1.451712550644712,0.7041254309877589,0.3999559122133569,-0.3685058148704735,3.4302101990961185,0.37433210183719645,kiss
8441,-1.3745902127139944,0.7045388850606662,0.31000734458791945,-0.11691498257332175,3.639146566043513,0.5601384570390998,kiss
8453,-1.1905023795765524,0.524167851270985,0.18311843484564047,0.10237283018544437,3.627935342525193,0.7611127020620575,kiss
8464,-0.9106910320743373,0.2676806004526463,0.16980998673922684,0.09056980303273143,2.6474635521671934,0.806616309397639,kiss
8475,-0.69095332520793,0.1063386209201295,0.30564826391577626,-0.08026347024051983,2.0879216755447225,0.6132259782214178,kiss
8486,-0.5867022873917361,0.11006309654410527,0.47774266356075823,-0.22189977571720226,1.781141961032611,0.41035578580056664,kiss
8498,-0.5425217154073846,0.3433833634083966,0.5773266979931839,-0.269111884328054,1.7006250315977336,0.28522089669150824,kiss
8509,-0.4855498582459023,0.45963173725154044,0.5142262326705576,-0.22065735502047554,1.7077594420097733,0.2700530379342446,kiss
8520,-0.38401327782023886,0.5585048731291486,0.4274901138888858,-0.12250587570859195,1.6618953655331745,0.3288285255654056,kiss
8532,-0.2797622400040451,0.5800180407915672,0.39398966725717666,-0.020005913780228455,1.4794582587286995,0.3705401449138282,kiss
8543,-0.18403872563927187,0.5125843592939614,0.4038563401541489,0.06572132803057885,1.183889884625114,0.34210040586098506,kiss
8554,-0.10885301812752904,0.37482620675620976,0.42381901231376906,0.1005091889624179,0.5581000162820505,0.12406232361907969,kiss
8565,-0.07242214262304249,0.19693928637178268,0.4710884395075515,0.019130429768090474,0.3481444836299375,-0.04657617282556014,kiss
8577,-0.1014906477314589,0.07945055030991718,0.5413017816147354,-0.05727863646139372,0.2676275374964592,-0.12999941152240524,kiss
8588,-0.17551120218785135,0.08441199918480392,0.5933889422120119,-0.07405134640101349,0.2798579601166989,-0.0522641392744031,kiss
8599,-0.2088402942180125,0.24326986531206657,0.5938475949433629,-0.06411196047132701,0.3012611913528181,0.07476675936013001,kiss
8610,-0.1727999196012865,0.35538030945832744,0.6128929616402812,-0.05417257454164055,0.2706851348022187,0.14871010574855453,kiss
8621,-0.15535754661465043,0.4104035908330952,0.6553427757062606,-0.03926348546917444,0.20341784378810168,0.15629405065908167,kiss
8633,-0.17512387610405636,0.3417295471167677,0.6867792850468908,-0.0262180376197348,0.15755376731150297,0.1107904433235002,kiss
8644,-0.20535118465989216,0.22258699476327332,0.711790896699989,-0.04920287139886092,0.16163056371918236,0.0178872812544438,kiss
8655,-0.22550484023309308,0.18618270254057342,0.7473571603470867,-0.20015738299067565,0.29718437824653793,-0.2172146382064093,kiss
8666,-0.24449651755490906,0.23789157339646194,0.7737447301942382,-0.21817252380495852,0.4042005511257346,-0.2740941473758861,kiss
8678,-0.2561226496766894,0.36365616885209334,0.7654833418569938,-0.1597785882118208,0.5152935371112115,-0.26461422400367485,kiss
8689,-0.2576719540118693,0.5034849807221917,0.6576379190873246,-0.052930143666977444,0.6039641094572501,-0.22479858311693643,kiss
8700,-0.25844660617945925,0.39633598545081755,0.6239081460899398,0.052675880181139216,0.6447321904242497,-0.1830869327047232,kiss
8711,-0.26193571573757957,0.23789157339646194,0.6358387562779915,0.11479706768652066,0.6437129913223297,-0.14137531335630066,kiss
8723,-0.2630976939889645,0.08854992888168677,0.647312593459001,0.11355463681185755,0.6457513895261695,-0.10345565093124631,kiss
8734,-0.25689730184427934,0.06290222049019605,0.6640628167748557,0.04522133564490617,0.6732698320724084,-0.07880789986556208,kiss
8745,-0.2375182984386684,0.20645211901645943,0.7076592626692128,-0.046718030005407495,0.715057095442727,-0.06553601956998259,kiss
8756,-0.20573851074368713,0.4149549746028854,0.762041566647553,-0.024354396396708333,0.7945547756798822,-0.012448467323874035,kiss
8768,-0.172409418713526,0.5258216675626138,0.7833820767255347,0.0694486002986954,0.8251308322304816,-0.002968543951662782,kiss
8779,-0.12822884672917445,0.4815583589868661,0.7377198138157895,0.10485767157889778,0.817996405119841,-0.061744031582823704,kiss
8790,-0.05963403224987719,0.282985179085835,0.656032634527596,0.05391830087786593,0.7446138860970032,-0.19635884406409332,kiss
8801,-0.055757596607961896,0.21514143248313258,0.6507543686684423,-0.031187730584578036,0.6467705886280892,-0.35372549127694425,kiss
8813,-0.06622175047835739,0.18493895135404104,0.6507543686684423,-0.09641498000971266,0.5896952886331707,-0.4561085145906307,kiss
8824,-0.09025184169347356,0.22093317847164445,0.6615383470281168,-0.11815739309211207,0.5937721017394509,-0.4428366342950512,kiss
8835,-0.10458925640181872,0.29663594142739474,0.6734708369404769,-0.09393012843832284,0.6518666008362893,-0.3328696660708377,kiss
8846,-0.09180114602865343,0.37937759052599995,0.6805837137250347,0.08063041710304497,0.8638604815964396,-0.05605609619777136,kiss
8858,-0.04490611665377157,0.4331571207142353,0.6658993074245684,0.19182733408643182,0.9678190571698767,0.027367173562864413,kiss
8869,0.0450043316501115,0.38640969873323344,0.6133516143716322,0.24028186339401025,0.9841262928963969,0.03874307539675977,kiss
8880,0.22017731525233786,0.1741857564906425,0.5883418824428425,0.19990308897102824,0.8750717051147596,-0.02192839069608529,kiss
8891,0.2604814515947741,0.1063386209201295,0.5979792289741394,0.10299404053380773,0.6977306773128881,-0.11483155276514168,kiss
8903,0.2763713454422647,0.12702488043673346,0.5890298615398689,-0.00012713174291911178,0.5326199719396513,-0.19446283453861857,kiss
8914,0.2798604550003851,0.23085946518922848,0.574574781605078,-0.060384688203210496,0.4164309737459744,-0.23238252802746354,kiss
8925,0.28218441150315493,0.3429699093354894,0.5592005164832763,-0.051066512621887376,0.3573173089444177,-0.2229026046552523,kiss
8936,0.28024778108418,0.430259553236074,0.5509391281460325,0.10547888192726114,0.34508688632417794,-0.17550301885798672,kiss
8948,0.2783079758612396,0.4670772995316811,0.5580538846548989,0.20797884385562465,0.36649011756029715,-0.1698150524091437,kiss
8959,0.2984616314344406,0.4046118448445834,0.5605764746773293,0.27010004153894246,0.36649011756029715,-0.1736070403963026,kiss
8970,0.33566715910651695,0.28215827094002055,0.56149565986434,0.2558121628148397,0.30533800445909826,-0.19256685607693444,kiss
8982,0.3573701190148978,0.13571080493559579,0.5915543312866081,0.1837515995577082,0.19118742116786192,-0.22669456157862056,kiss
8993,0.3135768731143411,0.1187490210429676,0.5904058197339217,0.09305464442618484,0.06786401256214528,-0.24565440832304303,kiss
9004,0.2511792759757636,0.15349949697403853,0.5906351460995973,0.01726679872300041,-0.01774892908093223,-0.23807046341251592,kiss
9015,0.1914993110316819,0.19528208111234302,0.5842121281363749,-0.020627124128591807,-0.04322895672473076,-0.20773474589798868,kiss
9027,0.15661773986237532,0.2250677192007167,0.5651667614394567,-0.023733186048344984,-0.016729713280411552,-0.1736070403963026,kiss
9038,0.15274447902442556,0.23458394081320416,0.5564467203708617,0.032797098143829875,0.06990241076598495,-0.1243114761373529,kiss
9049,0.16049417550429063,0.2093496864946208,0.5697551684772751,0.07255466221844856,0.10659367862670424,-0.09207974909735095,kiss
9060,0.16359595897861598,0.16425608080524778,0.5839809220463906,0.10734252315028761,0.136150519376783,-0.044680194363876005,kiss
9071,0.16049417550429063,0.021946544497706163,0.5596591692146273,0.10920615419537767,0.14022733248306316,-0.004864522413346915,kiss
9083,0.14809339121492032,0.006225122823799548,0.5520876396987185,0.06572132803057885,0.10251686552042405,0.0008234129717054562,kiss
9094,0.12290132174841921,0.028151744559125117,0.5548414358111333,-0.003233193662672286,0.0332111596038665,-0.025720347619453528,kiss
9105,0.0868609471316932,0.06703676121926827,0.56149565986434,-0.06100590872951025,-0.03405614810885135,-0.05605609619777136,junk
9116,0.0450043316501115,0.10468480462850065,0.5722796382240143,-0.08088468058888318,-0.06870900106713011,-0.05605609619777136,junk
9127,0.008960782229419968,0.11337072912736297,0.5787045359115457,-0.062248329426236954,-0.0574977775488102,-0.012448467323874035,junk
9139,-0.0026653498923603827,0.10220069122324646,0.5823756374866622,0.007948623141677295,0.06582561435830558,0.10889446486181609,junk
9150,0.019037610016020452,0.09103404228694076,0.5773266979931839,0.032797098143829875,0.10965127593246378,0.1600860075824499,junk
9161,0.05856709419086673,0.08110436660154603,0.5633302707897438,0.03466072918891994,0.09232485780262481,0.19421371308413599,junk
9172,0.08182253323839297,0.11047655061701234,0.5773266979931839,0.016645588374637057,0.0199615378817069,0.20938157184139958,junk
9183,0.06166887766519209,0.15763742667092157,0.5851294335990768,-0.006960465930788812,-0.06972820016904996,0.20748559337971548,junk
9195,0.03492750386351102,0.20024691895504038,0.5927009631149854,-0.014415010467021866,-0.1431107191918877,0.19421371308413599,junk
9206,-0.0007255446694199668,0.20273103236029447,0.6000431662652186,0.0017364993021709509,-0.17266757664056726,0.1809418327885565,junk
9217,-0.032505332364401195,0.19942001080922597,0.6032556151089844,0.0296910362240767,-0.14922593050200758,0.1733578878780294,junk
9228,-0.04180750798341174,0.19735274044468984,0.6062387375870745,0.057024362797619105,-0.07584341147916984,0.16766995249297703,junk
9240,-0.036769094090111504,0.17335884834482818,0.617712574768084,0.08311526867443478,0.1494001410989426,0.1733578878780294,junk
9251,-0.020879200242620844,0.1481212050584339,0.6303330437774711,0.06758496925360533,0.23807068004777962,0.1790458543268724,junk
9262,0.010513261368565372,0.14894811320424842,0.6271205949337053,0.03590316006358305,0.26966593570029884,0.17146190941634523,junk
9273,0.062056203748987016,0.1559836103792927,0.5931596158463365,-0.003233193662672286,0.23399388364010024,0.1468141272868704,junk
9284,0.062056203748987016,0.1617753563678044,0.5759507397991309,-0.03926348546917444,0.15245775510330292,0.11458240024686844,junk
9296,0.050042745543411746,0.16011815110836491,0.5555294149081598,-0.05727863646139372,0.06174880125202539,0.08424668273234123,junk
9307,0.027177807383645964,0.15763742667092157,0.5445142304585012,-0.0479604507021342,-0.002460892456332107,0.07287078089844587,junk
9318,-0.0015001968370099011,0.16094505925417926,0.5472680265709157,-0.010066527850541985,-0.022844941289132267,0.09372657504076184,junk
9329,-0.018942569823645963,0.1324031723523381,0.5470387002052403,0.0936758547745482,0.04646078132602611,0.17146190941634523,junk
9340,-0.016228112433115612,0.0790337072691993,0.5463507211082139,0.11728190907997407,0.10557447952478441,0.18662976817360888,junk
9352,-0.0046019803113352626,0.05007836629445088,0.549333843586304,0.11666069873161072,0.16672657592738238,0.18283781125024062,junk
9363,0.005862173559060143,0.032703128328915226,0.5516289869673676,0.09243343407782151,0.21462905060782075,0.15629405065908167,junk
9374,0.044229679482521565,0.05669702042877709,0.5445142304585012,0.04832738738672293,0.22685947322806052,0.12027036669571144,junk
9385,0.07329500978697244,0.0984796045670815,0.5394671706893316,-0.003233193662672286,0.1820146125519825,0.08424668273234123,junk
9396,0.08453381582495778,0.11792211289715307,0.535796069114215,-0.04112711651426451,0.0902864429001843,0.0652868670517094,junk
9408,0.06903124806126214,0.13198632931162022,0.5302884768893857,-0.04920287139886092,-0.0055185064606924645,0.08803863965570947,junk
9419,0.031051068221595726,0.13074596709289843,0.5316644350834385,-0.02746045831646151,-0.0656514037613706,0.1316462685296068,junk
9430,-0.01080237245602045,0.09310131265147688,0.553234271527096,0.0501910286097494,-0.02692173769681163,0.1961096915458201,junk
9441,-0.0286288967224859,0.03890832839033437,0.578933862277221,0.06820617960196868,0.049518378631785626,0.21317352876476783,junk
9452,-0.015453460265525678,0.010363052520682394,0.5874245769801405,0.06075163506573563,0.11678570304310432,0.21506950722645196,junk
9464,0.012449891787540253,0.01698170665500861,0.5807684732026249,0.04087285302842628,0.14634254379318304,0.19421371308413599,junk
9475,0.056630463771891855,0.0790337072691993,0.5766387188961573,0.022857702036207,0.1371697184787028,0.1600860075824499,junk
9486,0.05585581160430192,0.09640894523473477,0.574574781605078,0.011054674883494067,0.10455528042286456,0.13354224699129094,junk
9497,0.04655363598529137,0.10220069122324646,0.5725089645896897,0.00608498191865083,0.06786401256214528,0.1259583020807638,junk
9508,0.035702156031101044,0.11171691283573412,0.5741142491494182,0.007327412793313941,0.04849917952986579,0.13543822545297504,junk
9520,0.02833978563503091,0.1030309883368718,0.5672306987305361,0.020372860642753586,0.05461439083998568,0.1600860075824499,junk
9531,0.03027641605400579,0.09061719924622288,0.5562173940051861,0.042115273725152995,0.08722884559442476,0.2112775503030837,junk
9542,0.03686730908645144,0.09516858301601298,0.5619543125956911,0.0433576944218797,0.10455528042286456,0.2112775503030837,junk
9553,0.03725463517024645,0.09640894523473477,0.576409392530482,0.04522133564490617,0.12901612566334408,0.19990164846918837,junk
9564,0.03492750386351102,0.08317163696608214,0.5807684732026249,0.0433576944218797,0.15551535240906247,0.18662976817360888,junk
9576,0.04616630990149645,0.027324836413310787,0.5704431475743016,0.030312246572440058,0.16978417323314188,0.16577394296750225,junk
9587,0.062056203748987016,0.0053982146779850285,0.5608058010430047,0.001115288953807595,0.1606113646172625,0.1392301823763433,junk
9598,0.07484431412215231,0.014084139176847355,0.5513977808773833,-0.04112711651426451,0.12493931255706389,0.11458240024686844,junk
9609,0.07717144542888774,0.05173218258607973,0.540613802517709,-0.07964225989215648,0.07397922387226516,0.10510250793844785,junk
9620,0.06903124806126214,0.09765269642126717,0.5332715993674759,-0.09330891808995948,0.02199993608554658,0.11268642178518432,junk
9632,0.05391918118532704,0.12247349666694336,0.5371720273082681,-0.022490765351618272,-0.007556904664532145,0.17525386633971352,junk
9643,0.03647680819869098,0.1030309883368718,0.5470387002052403,0.028448615527349994,0.02607674919182678,0.2112775503030837,junk
9654,0.01477702309427568,0.057523928574591425,0.5601178219459784,0.06323647645918905,0.08519044739058508,0.23782131089424266,junk
9665,0.003147716168529793,0.015741344436287018,0.5731969436867164,0.07006981064705874,0.1494001410989426,0.24919721272813805,junk
9676,0.04268037514734161,-0.0032910987886881106,0.5619543125956911,0.04522133564490617,0.19118742116786192,0.24919721272813805,junk
9688,0.07833342368027268,0.033116582401822484,0.5520876396987185,-0.00012713174291911178,0.18609140895966186,0.23971728935592682,junk
9699,0.10119836184003837,0.06828051240580067,0.5525462924300696,-0.04299075773729097,0.13207372296910364,0.22644540906034732,junk
9710,0.10081103575624345,0.10220069122324646,0.5495631699519794,-0.06908165343617025,0.052575992636145985,0.21506950722645196,junk
9721,0.08337183757357293,0.1311594211658057,0.5355667427485397,-0.07094529465919672,-0.022844941289132267,0.20748559337971548,junk
9732,0.05624313768809684,0.1460539346938978,0.5298298241580347,-0.024975606745071693,-0.07992022458545006,0.18473378971192472,junk
9744,0.04190254817578614,0.1460539346938978,0.527993333508322,0.012297105758157179,-0.042209757622810914,0.1904217250969771,junk
9755,0.05081739771100168,0.12412731295857221,0.5142262326705576,0.039630422153763174,0.012827127469667179,0.20558961491803135,junk
9766,0.06244352983278203,0.08854992888168677,0.5073426822516754,0.043978904770243056,0.05767200484434602,0.21317352876476783,junk
9777,0.07949540193165763,0.06538294492763942,0.5190458457983604,0.023478912384570356,0.07601762207610484,0.2036936053925566,junk
9788,0.08143520715459805,0.07324535024849804,0.5250102110302318,-0.018142282735138394,0.05665280574242619,0.17146190941634523,junk
9800,0.07290768370317743,0.0984796045670815,0.5307471296207368,-0.06597560169435349,0.0067119161595473,0.13354224699129094,junk
9811,0.05740511593948179,0.13074596709289843,0.5355667427485397,-0.09765741088437575,-0.056478578446890366,0.10320649841297308,junk
9822,0.03841661342163139,0.14274291314282928,0.5396964970550072,-0.10449073489430906,-0.11457309424232963,0.08235067320686648,junk
9833,0.019424936099815375,0.1233004048127577,0.5463507211082139,-0.07094529465919672,-0.16451395042800687,0.10131051995128897,junk
9845,-0.003440002059950317,0.09806615049417423,0.5580538846548989,-0.04485438878238104,-0.1390339060856075,0.1392301823763433,junk
9856,-0.02204117849400579,0.08854992888168677,0.5699844948429506,-0.019384703431865102,-0.08093942368736988,0.17146190941634523,junk
9867,-0.020879200242620844,0.10054687493161761,0.5858174126961033,0.0023577096505343043,-0.008576103766451994,0.1904217250969771,junk
9878,-0.010415046372225439,0.0959954911618275,0.5922423103836345,0.012918316106520531,0.053595191738065824,0.1961096915458201,junk
9889,-0.0015001968370099011,0.08524229629842907,0.5954547592274002,0.008569833490040648,0.0902864429001843,0.188525746635293,junk
9901,0.007024151810445089,0.084825453257711,0.5904058197339217,-0.011930158895632046,0.09945926821466453,0.16766995249297703,junk
9912,0.014386522206515132,0.09144749635984803,0.5805391468369495,-0.03802106477244774,0.08824804469634459,0.1392301823763433,junk
9923,0.01671365351325056,0.08565575037133615,0.5711330063956369,-0.059142267506483784,0.0637872161544659,0.11837438823402732,junk
9934,0.015551675261865613,0.08358509103898941,0.5660840669021586,-0.07715740832076666,0.02199993608554658,0.10320649841297308,junk
9945,0.009351283117180515,0.09765269642126717,0.5649374350737812,-0.06473317081969038,0.014865525673506859,0.1107904433235002,junk
9957,-0.0022780238085653715,0.11171691283573412,0.5642475762524459,-0.03864227512081109,0.013846326571587018,0.1259583020807638,junk
9968,-0.015840786349320603,0.10054687493161761,0.5697551684772751,-0.006960465930788812,0.020980736983626742,0.13543822545297504,junk
9979,-0.02010454807503091,0.0736588043214053,0.5757214134334555,0.01975165029439023,0.03524955780770619,0.1392301823763433,junk
9990,-0.018942569823645963,0.04387316623303173,0.5775560243588593,0.03217588779546652,0.05461439083998568,0.1525020626719228,junk
10002,-0.013904155930345722,0.01987588516535924,0.5761800661648065,0.025342553607596817,0.07499842297418499,0.17525386633971352,junk
10013,-0.0065386107303101425,0.016568252582101536,0.5725089645896897,0.0029789199988976577,0.08926724379826444,0.19800567000750421,junk
10024,0.007798803978035023,0.03187283121529008,0.5598884955803027,-0.04733924035377085,0.08722884559442476,0.21886149521361084,junk
10035,0.020590089155165855,0.05959119893912754,0.5424502931674218,-0.052930143666977444,0.06888321166406511,0.22265345213697907,junk
10046,0.024076023909320694,0.0893768370275013,0.5369427009425924,-0.036157423549421266,0.05665280574242619,0.2302373970475062,junk
10058,0.019424936099815375,0.09889305863998876,0.5433675986301237,-0.003233193662672286,0.06174880125202539,0.24730123426645392,junk
10069,0.022914045657935745,0.07737989097757025,0.5536929242584471,0.027206194830623285,0.07601762207610484,0.26626104994708577,junk
10080,0.03144156910935627,0.0711746909161513,0.5536929242584471,0.03714558076030976,0.08111363428430488,0.2719490163959288,junk
10091,0.037641961254041456,0.07282850720778015,0.5559880676395108,0.026584974304323532,0.07296002477034531,0.26246909302371757,junk
10103,0.03919126558922133,0.084825453257711,0.5582832110205744,0.004842561221924123,0.05767200484434602,0.24919721272813805,junk
10114,0.040353243840606276,0.09765269642126717,0.5530049451614206,-0.01503622081538522,0.04646078132602611,0.24161329888140157,junk
10125,0.043067701231136624,0.11709520475133875,0.5426796195330973,-0.031187730584578036,0.030153562298106982,0.23592533243255856,junk
10136,0.048493441208231784,0.14564048062099072,0.5316644350834385,-0.023733186048344984,0.029134346497586304,0.22644540906034732,junk
10147,0.05740511593948179,0.16466953487815503,0.5328129466361249,-0.0057180452340621045,0.040345570015906225,0.2169655167519267,junk
10159,0.06786926980987719,0.16011815110836491,0.5461213947425383,0.017888009071363762,0.059710403048185715,0.2169655167519267,junk
10170,0.09615994794673814,0.117508658824246,0.5534635978927717,0.03590316006358305,0.06786401256214528,0.22075747367529494,junk
10181,0.09461064361155827,0.08979029110040836,0.5642475762524459,0.04087285302842628,0.052575992636145985,0.2169655167519267,junk
10192,0.08569579407634273,0.07282850720778015,0.576409392530482,0.030312246572440058,0.018942338779787057,0.20179762693087247,junk
10203,0.07290768370317743,0.0757260746859414,0.5805391468369495,0.006706192267014183,-0.015710514178491713,0.17525386633971352,junk
10215,0.056630463771891855,0.09227440450566254,0.5803098204712741,-0.02186955500325492,-0.04628657072909111,0.14871010574855453,junk
10226,0.045391657733906514,0.09144749635984803,0.5819169847553112,-0.04982409192516067,-0.06870900106713011,0.1392301823763433,junk
10237,0.03299087344453614,0.07986400438282444,0.5904058197339217,-0.04174832686262786,-0.038132944516530716,0.17525386633971352,junk
10248,0.01671365351325056,0.07737989097757025,0.5986672080711658,-0.023733186048344984,0.017923139677867215,0.21886149521361084,junk
10259,0.019037610016020452,0.06828051240580067,0.6133516143716322,-0.0044756143593989925,0.0790752360804652,0.24919721272813805,junk
10271,0.03182889519315128,0.05669702042877709,0.6080752282367873,0.007327412793313941,0.13207372296910364,0.2681570594725605,junk
10282,0.04229304906354669,0.040562144681963216,0.5998138398995432,0.007327412793313941,0.1626497628211022,0.27384499485761293,junk
10293,0.0450043316501115,0.033943490547637005,0.5949961064960492,0.0004940786054442416,0.16876497413122207,0.27574097331929703,junk
10304,0.044229679482521565,0.036424214985080375,0.5869640445244808,-0.011308948547268693,0.15245775510330292,0.27384499485761293,junk
10315,0.041127896008196205,0.05131872851317247,0.5805391468369495,-0.028702879013188215,0.11984330034886384,0.27384499485761293,junk
10327,0.03725463517024645,0.0736588043214053,0.5787045359115457,-0.04236954738892762,0.05665280574242619,0.3041807123721401,junk
10338,0.029889089970210867,0.08193127474736055,0.5770973716275083,-0.03243015128130474,0.060729602150105554,0.3307245040270897,junk
10349,0.020199588267405397,0.08648265851715066,0.5761800661648065,-0.019384703431865102,0.08926724379826444,0.3534763076948804,junk
10360,0.004312869223880274,0.08896338295459402,0.5725089645896897,-0.007581676279152166,0.13003532476526392,0.3705401449138282,junk
10371,0.00547484747526522,0.09227440450566254,0.5702138212086262,-0.00261198331430893,0.16570737682546252,0.38002003722224875,junk
10383,0.013224543955130275,0.11213036690864138,0.5686085366488978,-0.0057180452340621045,0.18711062476018256,0.37812408982435525,junk
10394,0.027177807383645964,0.13777807530013192,0.5653960878051322,-0.011930158895632046,0.18609140895966186,0.3648522095287758,junk
10405,0.03841661342163139,0.15515331326566736,0.5610351274086801,-0.019384703431865102,0.15959216551534264,0.3458923627843533,junk
10416,0.04345502731493164,0.16922091864794514,0.5571346994678882,-0.02683924796809815,0.12086249945078369,0.3307245040270897,junk
10427,0.03919126558922133,0.17583957278227136,0.5504804754146815,-0.0262180376197348,0.06276800035394524,0.32503653757824674,junk
10439,0.026403155216056032,0.17459921056354977,0.5417623140703953,-0.015657431163748573,0.05869120394626587,0.32693251603993084,junk
10450,0.015551675261865613,0.1808044106249689,0.5396964970550072,-0.0007483522692188698,0.07499842297418499,0.3231405591165626,junk
10461,0.03027641605400579,0.1878365188322023,0.5465800474738893,0.011054674883494067,0.1014976664185042,0.3136606357443513,junk
10472,0.046940962069086385,0.18824997290510956,0.5456627420111875,0.012918316106520531,0.12188171525130435,0.2947008200637195,junk
10484,0.06011957333001214,0.18245822691659777,0.5431382722644481,0.004842561221924123,0.12188171525130435,0.2643650714854016,junk
