timestamp,ax,ay,az,gx,gy,gz
timestamp,ax,ay,az,gx,gy,gz
IMU initialized. Recording at ~88 Hz...
5079125,0.131714,-0.111572,0.966919,1.220703,3.601074,16.723633
5095676,0.137329,-0.097900,0.986572,-2.258301,3.967285,16.052246
5112335,0.149658,-0.071533,1.002197,-5.065917,4.028320,15.197753
5128938,0.150146,-0.054321,1.010132,-7.141113,4.089355,13.244628
5145573,0.151001,-0.051147,1.009277,-3.356933,4.943848,12.084960
5162285,0.152832,-0.059448,1.000122,-0.610352,4.760742,11.657714
5179014,0.154053,-0.073120,1.005615,1.464844,3.845215,10.559081
5195575,0.153687,-0.076416,1.007446,0.427246,4.638672,9.155273
5212301,0.160767,-0.067627,1.000977,-0.305176,5.737304,8.972168
5228905,0.165894,-0.068115,0.995117,-1.037598,8.361816,8.911133
5245614,0.171265,-0.067017,0.984375,-0.671387,9.094238,8.544922
5263002,0.174927,-0.071289,0.994873,0.244141,10.192870,7.263183
5279603,0.181763,-0.067749,1.001221,0.305176,11.840819,5.004883
5296335,0.192627,-0.072388,1.001099,0.732422,11.474608,3.967285
5312995,0.192017,-0.070557,0.998047,0.305176,8.483887,2.319336
5329575,0.191895,-0.066162,1.001709,0.793457,8.361816,1.220703
5346168,0.191040,-0.076416,1.006836,1.647949,10.253905,0.427246
5362799,0.192383,-0.087036,0.992432,-0.122070,14.587401,-0.854492
5379568,0.190308,-0.099121,0.980225,-2.258301,15.136718,-0.976562
5396362,0.188843,-0.090210,0.992920,-3.784179,14.404296,-0.061035
5413023,0.189575,-0.083740,0.997192,0.244141,15.441894,2.441406
5429614,0.201172,-0.069702,0.992065,3.906250,16.845703,3.723144
5446212,0.226196,-0.066406,0.984619,10.742187,18.432617,5.981445
5462958,0.241699,-0.062012,0.979614,13.000487,19.226074,7.873535
5479595,0.254028,-0.058105,0.982422,11.901855,19.348145,8.544922
5496144,0.248047,-0.062866,0.982910,4.760742,18.371582,9.277344
5512788,0.232666,-0.089844,0.973511,-0.305176,17.395020,9.826660
5529491,0.240112,-0.075928,0.960815,-7.812500,13.610839,11.047362
5546174,0.250854,-0.054810,0.957886,-4.943848,8.056641,11.718749
5562954,0.265015,-0.058105,0.945801,-0.976562,5.371093,12.451171
5579734,0.270874,-0.067139,0.940430,2.868652,1.586914,13.488769
5596570,0.283813,-0.064697,0.935059,1.892090,-0.976562,13.977050
5613394,0.293335,-0.062256,0.951660,2.136230,-2.319336,14.099120
5630252,0.295532,-0.061035,0.957275,2.807617,-4.333496,13.549804
5647538,0.288330,-0.067139,0.962036,2.075195,-5.249023,12.329101
5664167,0.259033,-0.065918,0.982056,-2.502441,-7.263183,9.765625
5680909,0.243042,-0.065796,0.998047,-6.958007,-6.408691,9.643555
5697822,0.229126,-0.058228,1.009399,-8.117676,-5.065917,9.765625
5714694,0.224976,-0.041748,0.995361,-6.469726,-2.746582,8.544922
5731516,0.225464,-0.044678,0.989624,-0.549316,-2.685547,7.202148
5748354,0.237305,-0.045410,0.979980,1.159668,-2.685547,7.019042
5765014,0.254028,-0.030273,0.960571,1.220703,-2.441406,6.408691
5781657,0.260132,-0.026245,0.948853,0.366211,-2.746582,5.371093
5798269,0.258179,-0.041504,0.950439,-0.366211,-3.051758,4.699707
5815015,0.251099,-0.052490,0.961182,-3.540039,-3.906250,2.685547
5831744,0.239746,-0.058594,0.982544,-5.615234,-4.638672,1.342773
5848471,0.232422,-0.045654,0.997559,-7.690429,-5.371093,-1.342773
5865328,0.230835,-0.039429,0.994263,-4.699707,-3.784179,-2.685547
5882281,0.223999,-0.037842,0.994995,-2.075195,-2.746582,-2.441406
5899241,0.222900,-0.036621,0.999878,1.708984,0.366211,-1.647949
5915996,0.218994,-0.048218,1.007446,1.464844,2.380371,-2.624511
5932797,0.210205,-0.055420,1.008423,-1.037598,3.417969,-3.417969
5949574,0.213257,-0.049438,1.000244,-6.042480,6.286621,-3.784179
5966330,0.233643,-0.027832,0.984253,-6.103515,7.629394,-3.356933
5983043,0.249878,-0.010010,0.964966,-0.793457,8.972168,-2.990722
5999804,0.251587,-0.010376,0.957153,5.371093,8.117676,-3.601074
6016625,0.246704,-0.027222,0.945435,6.469726,7.995605,-4.028320
6033379,0.251587,-0.033813,0.931763,3.234863,8.911133,-4.821777
6050097,0.257324,-0.026855,0.927368,-1.281738,8.666992,-5.920410
6066904,0.267090,-0.024170,0.921265,-2.258301,7.568359,-6.835937
6083685,0.270142,-0.025879,0.923340,-1.647949,4.760742,-8.789063
6100602,0.271606,-0.029175,0.929199,1.708984,1.464844,-9.155273
6117343,0.271118,-0.040405,0.939819,3.112793,-0.061035,-8.972168
6134112,0.268433,-0.050293,0.947266,2.258301,-1.708984,-9.094238
6150840,0.262207,-0.056152,0.955688,-0.122070,-2.075195,-9.460449
6167704,0.253540,-0.037964,0.964844,-4.089355,-2.258301,-10.131835
6184697,0.247925,-0.032837,0.970093,-1.708984,-1.159668,-10.437011
6201566,0.238403,-0.048340,0.972778,0.122070,-0.671387,-10.620116
6218293,0.237915,-0.056396,0.968750,1.586914,-0.305176,-11.413573
6235119,0.239624,-0.058960,0.969238,2.075195,-1.647949,-12.145995
6251910,0.243286,-0.065063,0.965820,1.403808,-2.319336,-12.634276
6268609,0.242798,-0.060303,0.963867,-2.319336,-2.868652,-13.732909
6285430,0.239624,-0.047607,0.966309,-3.540039,-2.258301,-13.427733
6302341,0.239258,-0.056152,0.971069,-3.417969,-1.586914,-12.817382
6319090,0.242187,-0.058960,0.973389,-1.770019,-0.915527,-11.901855
6335880,0.249023,-0.064575,0.972656,-0.122070,-1.586914,-11.901855
6352690,0.239868,-0.071045,0.981201,2.685547,-4.272461,-12.634276
6369590,0.232056,-0.077515,0.985596,3.112793,-5.859375,-12.756347
6386316,0.223267,-0.088135,0.984009,1.892090,-4.760742,-12.084960
6403022,0.235596,-0.093994,0.974731,-0.488281,-1.525879,-10.131835
6419968,0.245117,-0.092896,0.979736,-2.258301,-2.380371,-8.911133
6436748,0.242310,-0.077148,1.001831,-2.990722,-3.662109,-8.544922
6453588,0.233398,-0.066772,1.006592,-3.173828,-4.455566,-8.178711
6470460,0.223389,-0.058228,0.992310,-3.051758,-3.356933,-8.056641
6487539,0.232666,-0.064453,0.975464,-2.685547,-0.122070,-7.324218
6504392,0.237183,-0.069336,0.968262,-2.380371,0.915527,-7.385253
6521256,0.235962,-0.078613,0.975220,-2.807617,0.244141,-7.507324
6538099,0.232178,-0.078369,0.991577,-4.699707,-2.075195,-7.690429
6554944,0.228760,-0.071655,0.996216,-3.356933,-3.723144,-7.385253
6571816,0.224121,-0.059814,0.995239,-0.061035,-3.784179,-7.141113
6588685,0.229126,-0.059204,0.992798,7.690429,-2.624511,-6.164550
6605412,0.233032,-0.067871,0.990479,9.643555,-1.770019,-6.103515
6622258,0.237915,-0.083618,0.986328,7.202148,-2.075195,-6.896972
6638978,0.236450,-0.081909,0.984131,0.549316,-4.028320,-9.338379
6656148,0.228149,-0.065796,0.980957,0.854492,-6.469726,-10.437011
6672842,0.213379,-0.067627,0.983032,2.807617,-6.713867,-10.864257
6689549,0.206543,-0.069702,0.980835,3.967285,-5.554199,-11.657714
6706299,0.205078,-0.064575,0.973755,3.479004,-4.638672,-12.023925
6723210,0.203735,-0.066162,0.973633,2.197266,-4.394531,-13.732909
6739889,0.198975,-0.065308,0.976929,1.220703,-7.934570,-16.296387
6756656,0.185181,-0.067017,0.979370,0.244141,-9.948730,-17.761230
6773543,0.178223,-0.049438,0.974243,-2.929687,-10.498046,-19.897461
6790457,0.176514,-0.041260,0.967773,-2.136230,-7.324218,-21.545408
6807329,0.161865,-0.062134,0.957397,0.793457,-5.493164,-22.399900
6824262,0.153564,-0.092407,0.955444,4.089355,-2.563476,-23.925779
6841040,0.150879,-0.134766,0.934082,-3.417969,-0.732422,-23.620604
6857955,0.161865,-0.117676,0.914429,-6.225585,-1.525879,-23.193357
6874779,0.165161,-0.109253,0.916870,-3.173828,-5.249023,-23.803709
6891698,0.160889,-0.111938,0.914795,0.793457,-6.591796,-24.169920
6908471,0.161621,-0.133545,0.904419,7.263183,-8.056641,-23.132322
6925323,0.164429,-0.142578,0.910278,6.164550,-9.582520,-20.812986
6942073,0.162842,-0.153320,0.942993,4.211426,-11.108397,-20.141600
6958796,0.143677,-0.155640,0.969971,0.793457,-15.747069,-18.798828
6975623,0.133179,-0.150269,0.981689,-0.976562,-18.676758,-14.953612
6992333,0.122437,-0.133911,1.002930,-0.854492,-18.310547,-12.207030
7009379,0.125854,-0.125244,1.003296,0.549316,-13.549804,-6.713867
7026176,0.138672,-0.097168,0.999512,3.112793,-6.652832,-0.854492
7042975,0.149902,-0.077271,0.984131,4.943848,-4.272461,1.953125
7059719,0.157593,-0.069946,0.977173,7.690429,-3.967285,5.615234
7076547,0.171631,-0.068237,0.971680,7.812500,-5.981445,6.225585
7093176,0.163940,-0.075562,0.978882,3.723144,-11.291503,5.126953
7109865,0.159790,-0.068115,0.979858,-3.112793,-12.573241,4.272461
7126669,0.158203,-0.059692,0.986816,-3.295898,-12.756347,4.821777
7143392,0.159546,-0.059448,0.994629,0.915527,-13.854980,5.981445
7160024,0.161133,-0.058716,1.012817,4.821777,-13.977050,5.249023
7176882,0.151855,-0.064575,1.008789,5.859375,-13.122558,5.371093
7193632,0.142334,-0.074463,1.008423,5.493164,-11.047362,5.798339
7210450,0.125244,-0.090454,1.019287,3.295898,-9.948730,5.126953
7227178,0.122070,-0.076172,1.019165,-1.892090,-8.056641,3.051758
7243824,0.124390,-0.064819,1.011719,-1.525879,-8.117676,1.403808
7260569,0.120728,-0.061523,1.004639,1.281738,-9.338379,0.793457
7277259,0.111816,-0.074463,1.008789,6.774902,-11.901855,-0.427246
7293852,0.111938,-0.068970,1.012207,6.774902,-11.657714,-0.976562
7311324,0.120850,-0.064331,1.010132,6.225585,-10.498046,-0.854492
7328169,0.123169,-0.070190,1.009277,4.272461,-8.911133,-0.854492
7344841,0.119873,-0.067505,1.009033,2.075195,-9.704590,-2.197266
7361708,0.120972,-0.052856,0.998047,2.197266,-10.070800,-2.502441
7378367,0.123169,-0.046997,0.989746,5.615234,-10.375976,-3.295898
7395128,0.123047,-0.061157,0.980225,7.202148,-10.620116,-4.638672
7411911,0.127075,-0.087158,0.990112,5.920410,-10.009766,-6.896972
7428630,0.129883,-0.104004,0.996582,4.516602,-9.094238,-6.896972
7445456,0.135498,-0.116455,1.003418,4.333496,-8.850098,-6.958007
7462166,0.136353,-0.110474,1.004150,5.981445,-8.911133,-7.202148
7478787,0.126221,-0.106323,1.010864,9.338379,-8.178711,-6.774902
7495616,0.117920,-0.118652,1.023071,9.155273,-6.774902,-6.774902
7512326,0.119751,-0.114746,1.024536,7.324218,-3.906250,-7.873535
7529240,0.116821,-0.124878,1.024170,7.202148,-3.234863,-8.422852
7545949,0.118286,-0.128052,1.028687,6.225585,-2.746582,-8.972168
7562700,0.118530,-0.125122,1.026367,7.629394,-2.685547,-9.338379
7579629,0.109985,-0.137329,1.023071,8.361816,-2.380371,-8.972168
7596526,0.107788,-0.137451,1.012817,9.704590,-1.037598,-7.629394
7613209,0.107910,-0.139893,1.008911,10.070800,1.464844,-6.896972
7630110,0.116089,-0.138184,1.010498,8.422852,2.807617,-6.774902
7647162,0.124756,-0.136475,1.015747,4.577637,4.455566,-5.798339
7663977,0.130615,-0.164429,1.027588,3.601074,5.126953,-2.075195
7680987,0.115356,-0.166626,1.001343,5.859375,4.943848,-0.671387
7697899,0.109863,-0.159546,0.993774,11.840819,2.380371,-2.380371
7714799,0.108887,-0.177002,1.020264,11.901855,2.441406,-2.563476
7731811,0.117065,-0.164185,1.046143,8.300781,3.723144,0.061035
7748571,0.120239,-0.164185,1.049561,2.624511,4.516602,1.464844
7765394,0.124023,-0.132690,1.030151,1.892090,4.943848,1.220703
7782246,0.122925,-0.122681,1.002197,8.117676,6.103515,-0.549316
7799423,0.120605,-0.133911,0.990234,15.319823,9.277344,-0.793457
7816188,0.124756,-0.161011,0.976807,16.174316,10.437011,-0.793457
7832965,0.128296,-0.170166,0.972534,12.573241,9.521484,-0.488281
7849799,0.126465,-0.169189,0.972412,4.943848,7.446289,-0.427246
7866628,0.124023,-0.163940,0.975220,0.793457,7.019042,-0.793457
7883685,0.122925,-0.158081,0.974121,-3.295898,6.286621,-0.305176
7900680,0.116333,-0.139893,0.964478,-1.647949,7.507324,2.685547
7917392,0.116089,-0.134766,0.959229,0.244141,8.605957,4.211426
7934071,0.122314,-0.141235,0.958130,2.807617,8.972168,5.126953
7950874,0.132446,-0.156738,0.960449,1.586914,7.934570,4.699707
7967670,0.128662,-0.141724,0.958252,-2.563476,4.089355,4.028320
7984612,0.122070,-0.136963,0.954590,-2.746582,0.976562,4.272461
8001540,0.118896,-0.131592,0.956421,-2.502441,0.915527,4.394531
8018314,0.132324,-0.118896,0.961182,-1.953125,1.708984,3.967285
8035169,0.133545,-0.123413,0.963379,0.000000,1.892090,3.723144
8052040,0.133057,-0.133179,0.962402,1.037598,1.831055,3.540039
8069000,0.141968,-0.134277,0.959717,2.624511,0.549316,2.563476
8085769,0.160034,-0.132080,0.965942,3.356933,-0.793457,2.258301
8102586,0.155762,-0.148804,0.983398,6.835937,-4.821777,1.159668
8119469,0.148193,-0.162476,0.991089,6.164550,-6.835937,-0.305176
8136396,0.138306,-0.173340,1.019775,2.319336,-6.896972,-0.366211
8153372,0.141235,-0.148560,1.064209,-5.676269,-8.178711,0.610352
8170459,0.144409,-0.125977,1.074219,-5.615234,-9.277344,1.037598
8187405,0.145874,-0.099487,1.082397,-3.540039,-8.544922,0.793457
8204353,0.128174,-0.106323,1.061523,2.075195,-3.479004,-1.953125
8221161,0.120361,-0.117188,1.046753,4.943848,3.540039,-4.638672
8237803,0.119873,-0.132324,1.015991,5.371093,6.286621,-4.760742
8254751,0.119751,-0.144775,0.981689,8.483887,7.507324,-4.455566
8271691,0.117188,-0.154663,0.966919,11.230468,6.774902,-4.882812
8288601,0.113525,-0.175537,0.940552,10.803222,7.019042,-5.126953
8305357,0.112305,-0.188599,0.926514,4.272461,7.690429,-4.882812
8322008,0.120239,-0.183350,0.914673,-1.220703,7.507324,-4.394531
8338821,0.135132,-0.152344,0.912476,-5.676269,4.089355,-3.662109
8355800,0.141602,-0.145752,0.917847,1.037598,-1.586914,-3.479004
8372891,0.140869,-0.163696,0.931274,4.882812,-3.417969,-3.601074
8389886,0.125122,-0.178101,0.937744,4.211426,-3.845215,-3.601074
8406760,0.116333,-0.174194,0.944824,-2.563476,-2.990722,-2.990722
8424249,0.103516,-0.170166,0.971924,-5.004883,-2.380371,-2.868652
8441146,0.104736,-0.169556,0.982300,-5.493164,-1.770019,-3.540039
8458143,0.105591,-0.170044,0.980591,-0.854492,-4.089355,-3.662109
8475245,0.105469,-0.177002,0.981323,2.014160,-5.798339,-3.112793
8492274,0.108276,-0.181396,0.991333,3.295898,-6.530761,-2.014160
8509234,0.111572,-0.173584,0.991943,0.122070,-3.601074,-0.671387
8526282,0.123169,-0.166504,1.008179,-1.586914,-2.319336,-0.183105
8543502,0.131226,-0.147949,1.019287,-4.394531,-1.159668,0.244141
8560512,0.130005,-0.136597,1.019409,-1.892090,-3.051758,-1.037598
8577491,0.118652,-0.141113,1.017212,0.488281,-3.967285,-1.953125
8594481,0.105957,-0.149780,1.008789,2.807617,-3.967285,-3.112793
8611312,0.100830,-0.154419,1.004272,1.953125,-1.892090,-3.234863
8628192,0.100586,-0.167358,0.994019,0.915527,-0.244141,-2.868652
8645174,0.105469,-0.170532,0.984375,-0.610352,3.723144,-1.220703
8662056,0.119995,-0.171509,0.962524,0.000000,4.760742,-0.061035
8679214,0.128174,-0.168823,0.959595,1.220703,3.234863,-0.305176
8696019,0.127808,-0.167114,0.960815,2.868652,-1.403808,-1.464844
8713273,0.118652,-0.168213,0.967651,0.671387,-3.295898,-1.403808
8730129,0.107544,-0.157593,0.975830,-1.098633,-2.929687,-0.793457
8747052,0.102173,-0.150024,0.980591,-0.671387,-1.708984,0.610352
8763826,0.100708,-0.147339,0.988525,1.770019,-1.647949,0.915527
8780639,0.103394,-0.153320,0.989990,6.591796,-2.624511,0.549316
8797244,0.104126,-0.154907,0.991089,5.249023,-3.601074,0.183105
8813812,0.106323,-0.154419,0.992310,2.014160,-3.234863,-0.244141
8830508,0.109985,-0.133179,0.999146,-3.601074,-1.525879,-0.610352
8847348,0.111450,-0.129272,1.000732,-1.464844,-0.183105,-0.061035
8864138,0.117920,-0.138428,1.001099,0.732422,-0.244141,-0.244141
8880859,0.118774,-0.145508,1.000122,3.356933,-1.586914,-1.708984
8897557,0.108643,-0.163452,0.992065,3.295898,-2.319336,-2.258301
8914329,0.102661,-0.175293,0.993774,0.610352,-2.502441,-2.014160
8931066,0.106567,-0.170288,0.996338,-2.075195,-0.854492,-0.732422
8947836,0.111694,-0.160400,0.998169,-1.220703,0.122070,0.183105
8964496,0.110474,-0.175415,1.001099,2.563476,1.037598,1.464844
8981285,0.111694,-0.173340,1.000732,0.061035,1.281738,0.732422
8997873,0.115234,-0.154907,0.994141,-1.098633,1.220703,0.122070
9014587,0.114014,-0.156250,0.991333,-0.366211,0.244141,-0.122070
9031583,0.110718,-0.159790,0.988770,0.122070,-0.122070,-0.305176
9048526,0.106445,-0.161133,0.993896,0.671387,0.610352,-0.305176
9065632,0.107178,-0.162720,0.992920,2.197266,1.647949,0.427246
9082406,0.107666,-0.172241,0.982178,2.807617,1.403808,0.549316
9099040,0.109375,-0.170410,0.977539,0.854492,0.793457,0.244141
9115918,0.111816,-0.164307,0.975342,-2.624511,0.244141,0.549316
9132769,0.119995,-0.155884,0.980469,-3.051758,-0.122070,0.854492
9149744,0.124268,-0.150146,0.987427,-1.708984,0.488281,1.464844
9166651,0.124146,-0.151733,0.986694,-0.183105,1.464844,0.732422
9183646,0.122314,-0.156982,0.985962,-0.427246,1.525879,-0.061035
9200529,0.120239,-0.155762,0.985596,-2.441406,2.563476,-0.854492
9217434,0.115356,-0.155396,0.993652,-3.784179,5.371093,0.244141
9234320,0.111206,-0.158813,0.997681,-3.601074,8.056641,1.159668
9251276,0.111206,-0.160400,0.992798,-3.723144,14.526366,2.929687
9268018,0.120728,-0.156250,0.983276,-5.187988,16.845703,3.784179
9284925,0.137817,-0.145386,0.979126,-5.615234,15.624999,2.685547
9301964,0.144653,-0.140869,0.975708,-5.065917,8.605957,0.305176
9318872,0.145874,-0.126221,0.981934,-5.371093,5.554199,-0.915527
9335928,0.139038,-0.131714,0.976807,-4.821777,2.136230,-2.380371
9352952,0.137451,-0.133423,0.974121,-2.258301,-1.403808,-2.685547
9370034,0.127808,-0.143555,0.978149,-1.403808,-2.868652,-2.380371
9387024,0.117310,-0.143677,0.992798,-2.624511,-1.953125,-1.464844
9404308,0.116455,-0.136719,0.988770,-5.676269,1.525879,-2.075195
9421187,0.118408,-0.138306,0.975342,-5.493164,1.770019,-2.441406
9438267,0.124634,-0.142944,0.985718,-3.784179,0.854492,-2.136230
9455198,0.128784,-0.143311,0.990601,0.061035,-1.159668,-1.647949
9472165,0.133911,-0.145630,0.994995,2.380371,-3.051758,-1.525879
9489065,0.137573,-0.143311,0.994141,3.845215,-4.760742,-1.708984
9506005,0.137817,-0.137451,0.984619,0.915527,-4.150391,-2.197266
9523150,0.132202,-0.136841,0.980469,0.671387,-4.089355,-2.014160
9540653,0.124390,-0.143311,0.996704,0.061035,-2.319336,-0.366211
9557525,0.126953,-0.135376,0.998047,-0.305176,-1.403808,0.061035
9574453,0.132324,-0.119629,0.987793,0.549316,-1.892090,-0.366211
9591144,0.132202,-0.123657,0.985962,2.075195,-2.258301,-0.671387
9608032,0.140503,-0.131104,0.992310,1.831055,-2.258301,-1.586914
9625108,0.145508,-0.125610,1.002563,2.197266,-2.258301,-2.258301
9642010,0.142700,-0.127075,0.998169,5.187988,-3.173828,-3.234863
9659104,0.124023,-0.134155,0.995117,6.774902,-3.784179,-3.784179
9676080,0.108765,-0.160156,0.983398,9.399414,-3.967285,-4.699707
9693082,0.109009,-0.161987,0.975342,4.760742,-4.211426,-4.028320
9710182,0.111816,-0.142944,0.980957,1.953125,-4.516602,-3.173828
9727279,0.123291,-0.139160,0.988647,0.610352,-4.882812,-2.014160
9744303,0.118896,-0.139648,0.998901,1.037598,-4.638672,-3.234863
9761420,0.100708,-0.146851,0.988525,0.732422,-3.967285,-3.295898
9778700,0.103394,-0.143066,0.978149,-0.305176,-4.272461,-2.685547
9795959,0.111450,-0.137329,0.985718,-2.502441,-4.150391,-3.051758
9813203,0.132812,-0.123901,1.009155,-3.662109,-3.295898,-3.112793
9830202,0.114502,-0.130493,1.021240,-4.821777,-0.854492,-3.540039
9847401,0.094360,-0.145386,1.001709,0.061035,-0.183105,-4.272461
9864473,0.080811,-0.163696,0.970215,3.540039,-2.136230,-4.394531
9881702,0.092896,-0.182983,0.975952,1.342773,-4.638672,-2.990722
9898884,0.105469,-0.167358,0.985107,-6.530761,-3.051758,-0.976562
9916346,0.110352,-0.123779,1.010010,-7.385253,-1.525879,-0.732422
9933342,0.102905,-0.120239,1.008667,-1.892090,1.647949,-1.159668
9950337,0.102905,-0.128906,1.005615,3.540039,1.464844,-2.075195
9967183,0.113892,-0.141724,1.000244,3.845215,1.342773,-2.502441
9984184,0.117554,-0.148682,0.986084,0.976562,2.319336,-2.502441
10000983,0.130005,-0.143188,0.975952,-0.976562,2.441406,-2.380371
10017817,0.121582,-0.134033,0.983643,-1.159668,2.563476,-2.563476
10034818,0.105957,-0.149658,0.977173,1.525879,3.417969,-1.464844
10051918,0.105469,-0.151733,0.974731,3.295898,1.525879,-1.037598
10068809,0.107910,-0.147949,0.972046,2.014160,1.098633,-1.037598
10085642,0.116943,-0.141235,0.972656,-1.342773,1.281738,-1.037598
10102604,0.118408,-0.140015,0.978760,-2.014160,0.793457,-0.976562
10119747,0.111328,-0.140137,0.986816,-1.708984,0.793457,-0.854492
10136529,0.110229,-0.141357,0.986328,0.305176,-0.244141,-0.610352
10153514,0.117310,-0.149658,0.988159,1.953125,-2.502441,-0.366211
10170841,0.116699,-0.142944,0.998901,1.464844,-2.441406,-0.366211
10188121,0.112427,-0.138550,0.999390,0.061035,-0.976562,-0.183105
10205259,0.113281,-0.127197,0.990967,-0.549316,-0.183105,-1.098633
10222173,0.127930,-0.116089,0.985352,0.122070,-0.488281,-1.831055
10239186,0.116455,-0.122070,0.994507,2.136230,-0.061035,-2.624511
10256055,0.088745,-0.145386,0.993896,1.708984,1.403808,-1.953125
10273099,0.099365,-0.149292,0.983887,0.610352,2.868652,-0.915527
10290402,0.110107,-0.145874,0.986938,0.061035,2.258301,-1.037598
10307483,0.114868,-0.143555,0.990234,-0.244141,2.075195,-1.037598
10324300,0.110229,-0.136963,0.988403,0.488281,1.037598,-1.464844
10341689,0.108887,-0.139282,0.984009,1.708984,0.610352,-1.892090
10358920,0.111694,-0.137573,0.982910,1.525879,0.793457,-1.647949
10376144,0.117554,-0.134644,0.980713,0.671387,1.464844,-0.610352
10393339,0.121460,-0.131226,0.979858,0.976562,1.037598,-0.793457
10410296,0.122803,-0.127197,0.981812,1.770019,0.427246,-1.342773
10427182,0.115356,-0.130493,0.982666,2.319336,-0.854492,-1.953125
10444150,0.109131,-0.135986,0.985474,1.281738,-0.915527,-1.953125
10461343,0.106079,-0.139282,0.994507,0.244141,0.366211,-1.586914
10478412,0.121948,-0.135010,0.998779,0.549316,3.295898,-1.281738
10495474,0.127930,-0.142456,0.995483,3.234863,2.075195,-2.624511
10512292,0.117554,-0.158569,0.989136,3.112793,0.793457,-3.295898
10529338,0.112305,-0.160156,0.986206,1.098633,0.244141,-2.258301
10546287,0.115967,-0.156250,0.990234,0.488281,1.647949,-0.671387
10563469,0.120728,-0.145142,1.004395,1.708984,2.136230,-0.366211
10580371,0.114868,-0.157104,1.004883,4.150391,2.990722,-0.427246
10597210,0.117920,-0.158203,1.002197,0.671387,4.516602,-0.671387
10613996,0.130859,-0.146240,0.993164,-0.854492,4.943848,-0.610352
10630883,0.134399,-0.145386,0.988159,0.854492,3.662109,-0.183105
10648095,0.128174,-0.151001,0.987061,2.624511,1.281738,0.427246
10665246,0.117798,-0.145386,0.984985,1.831055,1.403808,0.549316
10682027,0.120972,-0.138184,0.982544,0.305176,3.723144,0.366211
10698706,0.130493,-0.135010,0.977539,1.037598,4.638672,0.427246
10715757,0.130493,-0.138916,0.980591,0.976562,4.516602,0.244141
10732629,0.131226,-0.137939,0.980225,0.183105,3.967285,-0.549316
10749554,0.131226,-0.135254,0.974854,0.122070,3.234863,-0.915527
10766400,0.115601,-0.147583,0.969116,0.732422,1.159668,-1.403808
10783554,0.109497,-0.159912,0.971558,-1.037598,1.464844,-0.976562
10800485,0.103882,-0.173950,0.982056,-3.662109,2.990722,-0.366211
10817494,0.117676,-0.155151,0.988281,-7.629394,5.859375,0.915527
10834744,0.132690,-0.132080,0.989014,-7.019042,5.798339,1.831055
10851987,0.156250,-0.109375,0.984863,-4.211426,4.150391,1.647949
10868989,0.156616,-0.112915,0.976074,1.342773,-0.305176,0.305176
10886035,0.150635,-0.117798,0.977417,2.868652,-3.967285,-0.061035
10903065,0.138428,-0.132690,0.987793,2.197266,-4.394531,-0.305176
10920016,0.135864,-0.132935,0.998291,-1.770019,-2.624511,-0.183105
10937217,0.138062,-0.123047,1.001465,-2.807617,-0.915527,-0.305176
10954375,0.134644,-0.119629,1.001953,-0.305176,-0.976562,-0.854492
10971443,0.128174,-0.140747,1.004028,4.577637,-1.281738,-2.136230
10988996,0.126099,-0.149658,1.002441,1.953125,0.183105,-2.563476
11005861,0.130249,-0.138916,0.993530,-0.976562,1.281738,-2.380371
11022870,0.138916,-0.125732,0.985962,-1.342773,2.502441,-1.831055
11040180,0.138916,-0.128418,0.983765,4.455566,1.586914,-1.647949
11057386,0.139160,-0.140015,0.982544,6.225585,1.159668,-1.586914
11074130,0.145264,-0.137085,0.979614,5.310058,1.831055,-1.464844
11090833,0.149536,-0.131470,0.981079,2.868652,2.502441,-2.197266
11107475,0.142700,-0.121582,0.984131,2.502441,2.746582,-2.746582
11124099,0.138428,-0.118774,0.985107,5.065917,4.394531,-3.356933
11140745,0.147705,-0.112427,0.984741,12.268065,6.835937,-5.187988
11157650,0.153564,-0.101440,0.980591,17.700195,7.202148,-6.713867
11174322,0.153687,-0.094360,0.984253,33.996582,6.103515,-10.070800
11191288,0.153931,-0.057373,0.981689,48.461910,4.394531,-11.474608
11207993,0.150879,-0.086304,0.977783,94.909660,-1.708984,-14.953612
11224863,0.149292,-0.134399,0.978027,141.113281,-6.286621,-21.545408
11241570,0.133301,-0.227173,0.978638,156.188965,-6.713867,-23.620604
11258632,0.116089,-0.312134,0.958618,169.555649,-2.746582,-25.878904
11275610,0.116699,-0.335571,0.942383,169.250473,3.112793,-26.916502
11292762,0.134155,-0.331299,0.894897,174.560532,4.028320,-28.686522
11309718,0.144409,-0.355469,0.831055,209.411606,-0.366211,-34.545898
11327096,0.141113,-0.393311,0.797485,258.178711,-8.544922,-40.405270
11344384,0.117310,-0.508179,0.730103,279.724121,-11.779784,-43.395992
11361143,0.090820,-0.650757,0.659546,303.527832,-14.892577,-48.095699
11378452,0.083618,-0.701416,0.630249,295.898437,-15.014647,-49.194332
11395635,0.086060,-0.705933,0.563965,290.649414,-16.784668,-49.926754
11412417,0.072266,-0.721802,0.477173,309.326172,-28.442381,-55.358883
11429320,0.043579,-0.779541,0.426758,340.454071,-35.583496,-60.852047
11446557,-0.019531,-0.949341,0.327637,344.055145,-34.179687,-61.279293
11463942,-0.049561,-1.033203,0.236450,317.810059,-26.367186,-56.640621
11481145,-0.060913,-1.058350,0.195557,276.123047,-16.845703,-47.363277
11498249,-0.071899,-1.050903,0.111816,253.356918,-10.864257,-43.579098
11515456,-0.063965,-0.989990,0.021484,213.623032,-3.845215,-42.114254
11532635,-0.066895,-1.007935,-0.022705,200.378403,-9.887695,-39.428711
11549887,-0.072144,-1.039307,-0.091309,191.955551,-13.977050,-36.376953
11567642,-0.085327,-0.984009,-0.137817,166.625961,-18.554687,-32.043457
11584922,-0.088745,-0.955688,-0.159912,156.188965,-20.446775,-34.973145
11602250,-0.105225,-0.959351,-0.193604,156.494141,-20.019531,-37.109375
11619659,-0.115723,-1.010010,-0.226440,148.986816,-13.793944,-36.010742
11636986,-0.111450,-1.009766,-0.246582,120.361320,-6.408691,-28.625486
11654372,-0.105469,-0.964478,-0.292603,106.994621,-5.371093,-25.512693
11671585,-0.110962,-0.903809,-0.327026,96.069328,-7.934570,-24.475096
11689073,-0.125854,-0.918945,-0.339966,102.905266,-10.009766,-28.503416
11705947,-0.159546,-1.002930,-0.360718,98.388664,-8.117676,-27.404783
11723469,-0.175415,-1.057007,-0.378296,55.114742,1.586914,-16.540527
11740972,-0.169922,-1.054077,-0.384521,-7.751464,12.329101,-0.976562
11758553,-0.150024,-1.014038,-0.411865,-56.091305,15.747069,12.084960
11775832,-0.123779,-0.959595,-0.409546,-58.898922,15.136718,11.230468
11793154,-0.137085,-0.944336,-0.370117,-48.217770,8.361816,6.408691
11810536,-0.147217,-0.972900,-0.347778,-38.879395,4.272461,7.141113
11828017,-0.150269,-1.052612,-0.310913,-42.358395,6.164550,10.131835
11845216,-0.132690,-1.067627,-0.289063,-67.382812,12.451171,18.554687
11862434,-0.121948,-1.048950,-0.277100,-90.698235,16.662598,25.878904
11880083,-0.105713,-1.013916,-0.249146,-96.130363,17.517090,28.320311
11897450,-0.097412,-1.016968,-0.210937,-100.097649,17.578125,30.578611
11914719,-0.097900,-1.033813,-0.190918,-111.572258,18.249512,31.677244
11931926,-0.101440,-1.045654,-0.153809,-124.267570,20.263670,33.569336
11949180,-0.093628,-0.999512,-0.123657,-153.137207,26.733397,38.085937
11966883,-0.080200,-0.977539,-0.101807,-161.682114,29.846189,38.757324
11983929,-0.052368,-0.972778,-0.044312,-150.695801,25.024412,37.353516
12001474,-0.045166,-1.018311,0.013794,-146.850586,22.338865,38.146973
12018958,-0.059448,-1.069092,0.066162,-155.395508,21.911619,41.381832
12036054,-0.054565,-1.072144,0.086182,-186.584457,27.099607,46.997066
12053485,-0.024048,-1.014160,0.130005,-201.110825,28.564451,50.354000
12070815,0.010864,-0.926636,0.180664,-208.190903,25.878904,53.894039
12087685,0.022583,-0.898926,0.212769,-191.162094,17.395020,51.940914
12104740,0.029907,-0.900757,0.293457,-182.128891,12.695312,51.208492
12121710,0.024292,-0.922729,0.332764,-178.527817,9.277344,52.307125
12138533,0.026978,-0.944092,0.396240,-205.322250,17.211914,55.603024
12155839,0.071411,-0.851929,0.447510,-222.228989,20.568846,56.457516
12173013,0.098267,-0.786377,0.475098,-228.576645,17.333984,56.640621
12190339,0.136353,-0.695068,0.531616,-199.401840,6.958007,55.908199
12207422,0.141357,-0.653442,0.594604,-182.861313,4.333496,54.138180
12224769,0.143799,-0.627563,0.660156,-158.264160,1.770019,46.997066
12241785,0.148071,-0.629150,0.687012,-145.385742,1.037598,38.330078
12259087,0.156494,-0.601440,0.721802,-142.517090,1.403808,36.010742
12276394,0.176392,-0.546631,0.745361,-131.408691,0.488281,34.240723
12293692,0.180054,-0.530029,0.760986,-109.008781,-3.662109,31.249998
12310909,0.166992,-0.551758,0.793823,-99.365227,-4.760742,29.296873
12328214,0.168213,-0.546753,0.820435,-100.341789,-1.525879,27.404783
12345345,0.182983,-0.515991,0.834473,-113.037102,1.342773,26.977537
12362318,0.207397,-0.438232,0.862549,-113.891594,0.610352,26.733397
12379261,0.195679,-0.425903,0.881226,-103.759758,-1.403808,25.268553
12396336,0.183594,-0.435425,0.886230,-102.905266,2.746582,24.597166
12413212,0.196045,-0.353638,0.897827,-107.604973,6.591796,23.620604
12430432,0.216675,-0.279175,0.913452,-100.646965,8.911133,19.409180
12447509,0.213501,-0.282837,0.921265,-77.392578,8.117676,16.357422
12464476,0.198608,-0.351685,0.927612,-72.143555,8.605957,17.089844
12481825,0.202148,-0.371094,0.933105,-86.059563,10.375976,21.911619
12499192,0.211914,-0.315308,0.933228,-109.130852,11.413573,23.925779
12516420,0.247192,-0.140869,0.935059,-106.018059,9.582520,20.996092
12533582,0.249146,-0.100098,0.951294,-64.941406,0.793457,11.413573
12550594,0.237183,-0.150513,0.965088,-26.062010,-5.920410,6.225585
12567652,0.221313,-0.239136,0.980713,-24.475096,-5.737304,6.408691
12585000,0.236816,-0.163940,0.973267,-40.771481,-1.892090,7.385253
12601824,0.244263,-0.111450,0.972778,-33.203125,-3.479004,3.295898
12618721,0.228638,-0.105225,0.989990,-18.981934,-4.333496,0.549316
12636084,0.221436,-0.161133,0.994019,0.061035,-0.488281,-1.281738
12653447,0.230591,-0.172363,0.989380,0.061035,2.807617,-0.549316
12670807,0.238159,-0.159424,0.977783,-0.671387,2.746582,-0.915527
12688160,0.231323,-0.168945,0.974609,2.319336,2.075195,-2.441406
12705260,0.231201,-0.170898,0.973267,4.577637,2.563476,-3.173828
12722349,0.233276,-0.187378,0.972046,6.164550,2.136230,-2.746582
12739658,0.223022,-0.200562,0.976685,6.103515,1.708984,-2.075195
12756887,0.223022,-0.191772,0.979126,3.601074,3.967285,-2.014160
12773953,0.231567,-0.174927,0.981567,4.333496,4.638672,-2.014160
12790716,0.232300,-0.167236,0.982788,9.826660,4.211426,-3.173828
12807671,0.231812,-0.174072,0.981079,18.615723,4.150391,-5.249023
12824291,0.227173,-0.214722,0.979614,20.690916,5.126953,-5.371093
12841049,0.228271,-0.230591,0.978271,14.404296,9.399414,-3.356933
12858083,0.244019,-0.222778,0.968140,3.967285,12.023925,-1.220703
12875093,0.257324,-0.195679,0.959595,1.403808,11.230468,-0.976562
12891893,0.259155,-0.176270,0.954224,5.065917,7.202148,-2.868652
12908861,0.262329,-0.135864,0.941772,11.840819,5.126953,-5.065917
12925789,0.265015,-0.104004,0.939819,34.729004,1.586914,-11.962890
12942659,0.264648,-0.096069,0.937744,71.716309,-2.502441,-19.104004
12959843,0.259766,-0.125122,0.927002,93.933098,-5.310058,-22.644041
12977057,0.245972,-0.214111,0.915771,130.310059,-10.314940,-29.846189
12994397,0.232056,-0.267822,0.911011,143.310547,-11.230468,-33.081055
13011692,0.203369,-0.339111,0.905029,142.150879,-8.972168,-34.423828
13028936,0.201172,-0.354614,0.883789,136.108398,-1.525879,-37.536621
13046052,0.206665,-0.353149,0.866455,144.348145,1.831055,-43.334957
13063556,0.207153,-0.404053,0.821899,155.700684,0.732422,-47.241207
13080423,0.186768,-0.497559,0.784424,177.124008,-2.258301,-53.771969
13097453,0.175293,-0.550659,0.767456,180.603012,-1.770019,-56.091305
13114509,0.162964,-0.636475,0.734253,174.682602,0.061035,-55.358883
13131456,0.151733,-0.665649,0.693115,159.057617,3.784179,-51.574703
13148636,0.145020,-0.662598,0.673218,154.235840,5.981445,-51.147457
13165636,0.140503,-0.664551,0.628662,156.799316,6.896972,-53.710934
13182547,0.146729,-0.674194,0.568359,167.053207,4.699707,-60.668941
13199887,0.142090,-0.678711,0.533447,190.551743,-5.493164,-68.664551
13217114,0.114380,-0.681152,0.469727,206.420883,-11.718749,-74.340820
13234066,0.069702,-0.743896,0.394897,244.750961,-22.399900,-88.806145
13251181,0.043091,-0.796265,0.353882,277.221680,-27.221678,-98.693840
13268300,0.000732,-0.898804,0.265747,287.109375,-27.587889,-100.830070
13285640,-0.025269,-0.977417,0.175415,289.184570,-28.320311,-101.074211
13303038,-0.045166,-0.992187,0.131348,271.911621,-30.639647,-96.740715
13320432,-0.093994,-1.057373,0.052490,259.033203,-31.249998,-93.811028
13337735,-0.145752,-1.075806,-0.030762,225.585922,-27.770994,-83.557121
13355089,-0.156982,-1.034790,-0.074219,192.077621,-25.878904,-75.866699
13372436,-0.141235,-0.968872,-0.156738,184.570297,-32.470703,-73.059082
13389811,-0.161377,-1.006104,-0.202759,194.457993,-34.484863,-72.875977
13407235,-0.183716,-1.022949,-0.215332,196.899399,-33.935547,-69.030762
13424116,-0.203857,-1.042725,-0.250977,166.320786,-27.954100,-62.377926
13441069,-0.205566,-0.972290,-0.298828,149.719238,-24.536131,-59.265133
13458037,-0.217041,-0.952271,-0.320435,136.657715,-16.906738,-54.931637
13474986,-0.228271,-0.984375,-0.364258,133.605957,-12.512206,-51.635738
13491994,-0.220093,-0.976074,-0.405396,114.624016,-7.690429,-40.954586
13508866,-0.214966,-0.951172,-0.430298,90.759270,-11.718749,-32.775879
13526400,-0.235107,-0.913696,-0.454712,85.632317,-15.808105,-32.348633
13543257,-0.251587,-0.913574,-0.472168,81.665031,-19.897461,-32.775879
13560371,-0.256958,-0.922485,-0.480469,69.946289,-16.845703,-22.766111
13577362,-0.270386,-0.937744,-0.491699,61.462399,-14.099120,-16.296387
13594338,-0.258545,-0.957153,-0.510498,40.771481,-7.507324,-6.958007
13611279,-0.242920,-0.990356,-0.519653,5.798339,-7.141113,3.662109
13628593,-0.254883,-1.008057,-0.522949,-17.456055,-8.850098,11.779784
13645769,-0.287964,-0.976318,-0.508667,-61.584469,-6.164550,27.648924
13663050,-0.296875,-0.971069,-0.491333,-91.796867,6.469726,38.330078
13680421,-0.272095,-0.992432,-0.470215,-105.590813,14.770507,43.090816
13697611,-0.217407,-1.002563,-0.463867,-134.887695,24.658201,53.894039
13714621,-0.206787,-0.992798,-0.451904,-149.230957,18.371582,61.035152
13731876,-0.194214,-0.971436,-0.396851,-150.695801,13.610839,61.645504
13749369,-0.177979,-0.977051,-0.313110,-148.559570,8.056641,59.448238
13766608,-0.176636,-0.990356,-0.270752,-151.245117,12.268065,59.204098
13784075,-0.162476,-0.997314,-0.211304,-172.119125,23.681639,61.096188
13801038,-0.119995,-0.989014,-0.163086,-182.495102,28.015135,62.622066
13818285,-0.101074,-0.979004,-0.136963,-190.673813,29.113768,67.260742
13835476,-0.082397,-0.970459,-0.072632,-186.950668,25.451658,68.664551
13852975,-0.074219,-0.972290,-0.004150,-186.279282,24.597166,67.321777
13870432,-0.061279,-0.987915,0.050171,-192.382797,27.038572,66.772461
13887624,-0.046753,-0.973145,0.079224,-205.688461,28.930662,67.138672
13904968,-0.001465,-0.911865,0.142944,-208.801254,28.015135,65.795898
13922212,0.030640,-0.894287,0.210571,-194.824203,20.874022,62.744137
13939174,0.040283,-0.912720,0.243896,-177.062973,11.047362,64.025879
13956187,0.041748,-0.931030,0.303223,-177.307114,7.263183,65.551758
13973603,0.042236,-0.886108,0.364136,-189.453110,4.577637,65.734863
13990535,0.042969,-0.868286,0.394653,-197.021469,9.399414,64.575195
14007832,0.067871,-0.850830,0.449585,-199.645981,12.145995,64.941406
14025162,0.105591,-0.885376,0.487305,-213.867172,14.587401,70.373535
14042407,0.120850,-0.844727,0.510132,-242.431625,11.657714,78.308105
14059307,0.129395,-0.685669,0.574829,-247.680649,9.765625,79.162598
14076235,0.142212,-0.557495,0.648682,-232.238754,11.291503,72.814941
14093277,0.164795,-0.512329,0.675171,-204.589828,17.089844,63.537594
14110567,0.224976,-0.442871,0.721313,-187.438950,15.991210,59.509274
14127629,0.252441,-0.419922,0.776001,-149.353027,4.821777,51.269527
14144640,0.246094,-0.406616,0.803223,-119.873039,-3.784179,42.358395
14162023,0.215332,-0.426758,0.847534,-111.389153,-3.234863,38.879395
14179008,0.215088,-0.442749,0.873901,-113.769524,5.554199,36.132812
14196138,0.228394,-0.405151,0.878784,-125.915520,14.099120,38.085937
14212988,0.265259,-0.274170,0.885132,-122.131340,14.282226,37.170410
14229790,0.279175,-0.221313,0.894531,-86.914055,6.652832,28.076170
14246732,0.282227,-0.242920,0.910034,-49.560543,-0.854492,18.188477
14263911,0.265503,-0.294312,0.920410,-43.090816,-1.953125,16.235352
14281234,0.265503,-0.301147,0.923340,-46.874996,-1.586914,15.075683
14298095,0.277588,-0.292603,0.931152,-57.861324,-1.586914,13.610839
14315191,0.288818,-0.226685,0.938477,-59.204098,-2.197266,12.451171
14332539,0.292603,-0.211182,0.940918,-45.959469,-7.080078,8.605957
14349364,0.271362,-0.245117,0.954956,-36.010742,-11.169433,6.469726
14366791,0.245361,-0.245728,0.969482,-36.010742,-10.131835,6.774902
14383888,0.241943,-0.243286,0.969482,-39.123535,-3.112793,8.178711
14400951,0.255981,-0.206909,0.968384,-38.085937,3.173828,7.324218
14417796,0.279419,-0.165771,0.970337,-31.616209,3.601074,6.652832
14434974,0.283813,-0.168579,0.969849,-14.587401,0.427246,5.432128
14451810,0.274292,-0.210205,0.971313,-10.559081,-1.464844,4.577637
14468978,0.264648,-0.213013,0.971191,-18.005371,-1.281738,3.784179
14486244,0.266357,-0.186157,0.969238,-27.709959,2.502441,4.211426
14503618,0.279785,-0.116577,0.963135,-15.624999,2.563476,1.342773
14520434,0.281860,-0.129517,0.956787,-2.624511,0.610352,-0.854492
14537766,0.274658,-0.170288,0.956543,15.991210,-3.479004,-2.929687
14555211,0.261230,-0.232910,0.961792,8.361816,-3.295898,-2.197266
14572344,0.262695,-0.216309,0.966187,-0.488281,-1.953125,-1.342773
14589419,0.264282,-0.191650,0.969238,-9.582520,1.342773,0.671387
14606782,0.264771,-0.152100,0.968262,-2.502441,4.638672,0.732422
14624160,0.270264,-0.179443,0.956055,2.502441,5.065917,-0.122070
14641061,0.274536,-0.200562,0.951538,3.295898,3.173828,-1.281738
14658289,0.276001,-0.198120,0.942017,-3.173828,0.305176,-0.549316
14675310,0.275146,-0.172363,0.943237,-3.417969,-1.037598,-0.732422
14692618,0.272705,-0.177368,0.946167,0.793457,-2.380371,-1.647949
14709551,0.277100,-0.184326,0.939209,3.356933,-4.150391,-2.319336
14726790,0.284546,-0.186035,0.931885,4.577637,-6.469726,-2.868652
14743975,0.277466,-0.193848,0.933472,3.356933,-9.582520,-3.295898
14761148,0.260620,-0.197388,0.941284,0.305176,-9.704590,-2.807617
14778339,0.247070,-0.194092,0.950684,-0.549316,-8.544922,-2.075195
14795680,0.249268,-0.183838,0.958374,-0.183105,-4.333496,-0.427246
14813014,0.252930,-0.182007,0.958618,2.624511,-2.929687,-0.183105
14829944,0.255737,-0.192017,0.960449,4.272461,-3.662109,-0.793457
14847306,0.248901,-0.208496,0.962280,3.601074,-4.577637,-1.220703
14864400,0.243896,-0.211548,0.961548,-2.136230,-2.624511,-0.427246
14881573,0.240845,-0.204956,0.958740,-5.554199,-0.854492,0.061035
14898691,0.247192,-0.180298,0.959717,-8.483887,1.953125,1.098633
14915588,0.250122,-0.171509,0.959106,-4.211426,2.502441,1.098633
14932828,0.253052,-0.174438,0.955322,-1.037598,2.197266,0.793457
14950233,0.258423,-0.194214,0.949341,1.037598,1.159668,0.000000
14967252,0.263184,-0.188721,0.943970,-3.906250,-1.037598,-0.366211
14984347,0.272461,-0.149048,0.935669,-3.845215,-2.807617,-0.976562
15001600,0.267090,-0.140137,0.943359,6.103515,-6.042480,-4.150391
15018451,0.262817,-0.152344,0.949463,19.897461,-7.385253,-6.591796
15035844,0.248779,-0.223022,0.965820,23.193357,-7.202148,-6.530761
15052725,0.238281,-0.256104,0.971802,11.596679,-2.807617,-2.746582
15069569,0.239014,-0.243774,0.973145,-9.460449,2.624511,0.732422
15086501,0.256714,-0.184448,0.966431,-15.075683,2.990722,0.854492
15103824,0.261108,-0.160156,0.963867,-10.437011,-0.671387,-1.464844
15120941,0.252808,-0.158936,0.965698,4.455566,-4.150391,-3.234863
15138201,0.230469,-0.212280,0.979248,8.178711,-3.356933,-2.746582
15155387,0.226074,-0.230103,0.982544,1.037598,3.356933,0.122070
15172554,0.244629,-0.208374,0.973389,-9.094238,8.056641,1.831055
15189536,0.267090,-0.169189,0.956665,-9.887695,7.507324,1.708984
15206568,0.270142,-0.163330,0.950073,-3.356933,2.502441,0.122070
15223938,0.257935,-0.169678,0.949951,4.028320,-1.403808,-0.915527
15241058,0.243408,-0.181152,0.961426,6.347656,-1.281738,-1.220703
15258099,0.239624,-0.193359,0.962158,5.371093,2.136230,-1.403808
15274891,0.243652,-0.207642,0.953003,-1.220703,5.432128,0.000000
15291761,0.260254,-0.195923,0.942383,-4.028320,5.187988,0.488281
15308815,0.266113,-0.189209,0.940674,-5.798339,0.793457,0.305176
15325970,0.263550,-0.167358,0.943115,-4.638672,-1.525879,-0.061035
15343099,0.258911,-0.174438,0.952881,0.976562,-2.624511,-0.610352
15360172,0.259399,-0.185059,0.961060,3.906250,-0.488281,-0.488281
15377295,0.254883,-0.205200,0.972168,2.685547,0.793457,-0.305176
15394199,0.254150,-0.197144,0.967163,-5.004883,3.540039,0.427246
15411265,0.256592,-0.187500,0.959351,-7.995605,4.028320,0.244141
15428106,0.261597,-0.170044,0.944580,-6.042480,3.295898,-0.488281
15445309,0.259766,-0.172852,0.942139,2.075195,1.037598,-1.464844
15462378,0.259399,-0.179077,0.943481,9.643555,-0.305176,-1.464844
15479610,0.260742,-0.200073,0.949097,11.230468,-0.732422,-1.098633
15496566,0.257446,-0.213135,0.954590,5.737304,0.122070,0.610352
15513877,0.261719,-0.200073,0.956421,-5.249023,1.647949,1.831055
15530806,0.273071,-0.165039,0.956909,-6.896972,1.342773,1.647949
15548173,0.264526,-0.168091,0.966187,-2.014160,-0.061035,0.244141
15565507,0.257202,-0.181030,0.971313,0.793457,1.525879,-0.305176
15582767,0.253662,-0.193481,0.965698,-0.793457,2.746582,0.122070
15599926,0.258789,-0.173340,0.956421,-3.417969,2.868652,0.366211
15616730,0.256836,-0.164673,0.953857,0.854492,2.136230,-0.671387
15633755,0.254639,-0.174927,0.951660,4.272461,1.953125,-1.159668
15650741,0.259888,-0.196899,0.946533,7.202148,0.793457,-1.586914
15667571,0.258789,-0.200806,0.945801,2.441406,0.488281,-0.549316
15684649,0.259644,-0.186646,0.949341,-1.403808,1.281738,0.183105
15701836,0.272705,-0.159180,0.945190,-4.516602,1.586914,0.183105
15718820,0.273804,-0.155518,0.943115,2.197266,-2.136230,-1.220703
15735847,0.263306,-0.175659,0.949829,6.164550,-3.784179,-1.831055
15753040,0.254272,-0.201538,0.959229,7.080078,-3.662109,-2.075195
15769785,0.254028,-0.206299,0.963501,-1.342773,-0.610352,-1.037598
15787033,0.259033,-0.181519,0.964355,-5.432128,1.037598,-0.488281
15803690,0.265137,-0.166626,0.960449,-5.798339,2.319336,-0.915527
15820714,0.268921,-0.165039,0.949829,1.464844,0.427246,-2.197266
15837348,0.262573,-0.185547,0.952759,4.272461,-0.793457,-2.624511
15854576,0.260742,-0.193726,0.957397,5.737304,-2.136230,-2.685547
15871471,0.257202,-0.210205,0.959351,1.159668,-1.037598,-1.403808
15888541,0.260986,-0.204590,0.955078,-2.380371,-0.244141,-0.793457
15905766,0.266846,-0.189819,0.954956,-3.906250,-0.427246,-0.244141
15922500,0.267334,-0.173828,0.957153,-1.220703,-0.854492,-0.183105
15939360,0.261597,-0.189453,0.952148,5.004883,-1.098633,-0.122070
15956493,0.260986,-0.200317,0.951294,3.417969,-0.854492,0.000000
15973713,0.263184,-0.194946,0.953979,-0.427246,-0.366211,0.122070
15990899,0.265137,-0.169800,0.954956,-4.638672,0.366211,0.244141
16007880,0.264282,-0.166504,0.957275,-1.708984,0.427246,-0.366211
16024952,0.261353,-0.171509,0.960449,0.122070,0.793457,-0.732422
16042043,0.262451,-0.177246,0.958252,3.112793,1.403808,-1.159668
16059388,0.263184,-0.180786,0.956665,4.516602,1.159668,-1.525879
16076222,0.265625,-0.188110,0.953125,4.211426,0.671387,-1.647949
16093452,0.261719,-0.196289,0.954224,2.136230,-0.366211,-1.098633
16110539,0.258667,-0.196045,0.955322,-1.403808,0.244141,-0.427246
16127512,0.260254,-0.182251,0.956299,-2.441406,0.915527,-0.549316
16144776,0.263550,-0.171143,0.959473,-0.305176,0.915527,-1.037598
16161686,0.263428,-0.176758,0.959229,3.906250,0.122070,-1.037598
16178640,0.262573,-0.198486,0.957520,3.784179,0.000000,-0.732422
16195910,0.260010,-0.190430,0.959351,-1.708984,0.488281,0.671387
16213142,0.261108,-0.174072,0.959351,-5.371093,1.464844,0.854492
16230208,0.262939,-0.151611,0.958252,-3.967285,1.770019,0.000000
16247049,0.266602,-0.161987,0.954834,2.380371,1.708984,-2.441406
16264076,0.266724,-0.176758,0.951904,6.164550,0.122070,-3.173828
16281281,0.259399,-0.204346,0.951294,5.310058,-0.671387,-2.685547
16298168,0.260986,-0.198853,0.953735,0.305176,-1.159668,-0.732422
16315289,0.264038,-0.185059,0.952637,-2.014160,-1.464844,0.488281
16332291,0.268066,-0.161987,0.952148,-0.549316,-2.014160,0.305176
16349251,0.270264,-0.164429,0.957153,3.784179,-3.173828,-0.671387
16366487,0.269287,-0.166992,0.958374,5.798339,-3.784179,-2.075195
16383535,0.258301,-0.188965,0.964111,6.042480,-3.906250,-2.685547
16400644,0.250122,-0.206055,0.972900,2.136230,-2.075195,-1.770019
16417512,0.252686,-0.200195,0.973633,-2.075195,0.915527,-0.488281
16434832,0.258301,-0.186279,0.966309,-1.708984,1.770019,-0.610352
16451774,0.260132,-0.195312,0.961426,1.831055,1.708984,-1.464844
16468920,0.259888,-0.201538,0.960083,2.136230,1.037598,-1.708984
16485618,0.257935,-0.201294,0.956665,0.549316,1.220703,-1.403808
16502632,0.257080,-0.195923,0.953613,-2.197266,2.685547,-0.305176
16519746,0.262817,-0.182007,0.949585,-0.244141,3.662109,0.488281
16536718,0.272461,-0.181274,0.943848,2.014160,2.929687,0.244141
16553948,0.272827,-0.189819,0.939819,5.004883,-1.708984,-1.281738
16570912,0.266968,-0.198975,0.935303,4.455566,-4.211426,-1.831055
16588254,0.254272,-0.193604,0.941284,2.380371,-5.615234,-1.464844
16605565,0.251953,-0.194336,0.947266,-0.854492,-2.075195,-0.488281
16622931,0.258911,-0.188232,0.954712,-2.929687,1.098633,0.305176
16639724,0.267578,-0.178711,0.951050,-2.258301,1.220703,0.183105
16656661,0.266968,-0.179932,0.952271,1.037598,-0.122070,-0.976562
16673923,0.261475,-0.194946,0.954712,1.403808,-0.305176,-2.258301
16690870,0.259888,-0.202515,0.956787,0.122070,0.000000,-2.258301
16708249,0.261353,-0.201538,0.957031,-2.075195,0.915527,-1.342773
16725552,0.263672,-0.189453,0.959229,-0.122070,1.098633,-1.159668
16742717,0.260986,-0.184692,0.959839,2.319336,0.854492,-1.159668
16759581,0.258545,-0.194214,0.958496,5.920410,0.488281,-1.037598
16776497,0.254150,-0.217163,0.957642,4.272461,0.976562,-0.549316
16793291,0.262329,-0.192749,0.957886,-3.356933,2.868652,0.671387
16810316,0.268188,-0.180542,0.956055,-4.699707,2.685547,0.671387
16827131,0.270874,-0.173218,0.956787,-2.807617,1.708984,0.610352
16844485,0.265137,-0.176025,0.961182,1.831055,0.061035,0.488281
16861337,0.263184,-0.176514,0.963745,3.295898,0.549316,-0.183105
16878243,0.263062,-0.182007,0.963745,3.173828,1.037598,-0.854492
16895093,0.263306,-0.189941,0.958618,1.831055,2.075195,-1.037598
16912040,0.264648,-0.193970,0.956909,0.732422,2.075195,-0.488281
16929153,0.265625,-0.202271,0.953125,-0.305176,1.586914,-0.061035
16945760,0.263306,-0.188965,0.955200,-2.563476,0.549316,0.549316
16962882,0.262207,-0.179077,0.957764,-1.220703,0.793457,0.244141
16979957,0.263306,-0.175293,0.956055,0.427246,1.892090,0.000000
16996756,0.268433,-0.179199,0.952515,3.356933,3.234863,-0.549316
17013646,0.271851,-0.195557,0.948120,0.488281,2.380371,-0.244141
17030494,0.272705,-0.183594,0.942383,-2.319336,1.770019,-0.061035
17047524,0.271729,-0.176025,0.940308,-3.356933,-0.244141,-0.488281
17064617,0.264893,-0.166382,0.937500,-1.770019,-0.915527,-0.793457
17081643,0.263672,-0.175781,0.936035,3.784179,-1.220703,-1.159668
17098518,0.266357,-0.187988,0.936768,7.385253,-1.770019,-1.525879
17115590,0.267212,-0.211060,0.950195,5.493164,-2.136230,-1.525879
17132788,0.261597,-0.198486,0.959106,-3.906250,-0.122070,-0.427246
17149684,0.267700,-0.178711,0.953979,-3.784179,0.732422,-0.244141
17167006,0.273926,-0.170288,0.950195,0.305176,-0.488281,-0.732422
17183863,0.266235,-0.194824,0.956909,6.958007,-1.892090,-1.342773
17200820,0.263550,-0.203125,0.960083,3.356933,-0.549316,-0.793457
17218069,0.261963,-0.192261,0.959106,0.427246,0.122070,-0.427246
17234960,0.264526,-0.182617,0.958496,-0.610352,0.793457,-0.732422
17252304,0.266602,-0.188354,0.959229,2.197266,1.342773,-1.220703
17269261,0.268188,-0.193237,0.953857,2.502441,1.647949,-0.915527
17286472,0.270874,-0.186890,0.948486,2.014160,1.342773,-0.244141
17303456,0.270874,-0.185791,0.949463,2.258301,0.000000,-0.366211
17320687,0.266846,-0.186768,0.949585,2.319336,-0.427246,-0.427246
17338040,0.269287,-0.185181,0.949585,1.464844,-0.488281,-0.488281
17355143,0.271484,-0.182861,0.951660,1.342773,-1.098633,-0.732422
17372180,0.265991,-0.184814,0.959351,1.647949,-1.403808,-0.854492
17389652,0.262207,-0.182617,0.962891,0.427246,-0.549316,-0.549316
17406577,0.265381,-0.175293,0.962402,-0.732422,0.671387,-0.366211
17423769,0.273926,-0.171143,0.961548,0.183105,0.427246,-0.915527
17441043,0.267212,-0.184814,0.958008,2.502441,-0.915527,-2.075195
17458046,0.264282,-0.191406,0.956909,1.098633,-0.305176,-2.319336
17474985,0.266968,-0.192627,0.955688,-0.244141,0.427246,-2.197266
17492332,0.270142,-0.188721,0.955811,-0.610352,0.732422,-1.831055
17509347,0.269287,-0.191406,0.954712,0.061035,0.488281,-1.953125
17526539,0.267456,-0.196045,0.952271,0.244141,0.305176,-1.770019
17543691,0.268799,-0.193604,0.952759,1.281738,-0.427246,-1.525879
17560898,0.266357,-0.194824,0.955078,2.868652,-0.854492,-1.647949
17578055,0.264771,-0.200562,0.956543,2.502441,-0.366211,-1.647949
17594918,0.270142,-0.201538,0.948364,1.586914,0.488281,-1.281738
17611963,0.270142,-0.206543,0.948608,0.244141,0.732422,-0.854492
17628853,0.271729,-0.202148,0.950439,-1.159668,0.915527,-0.366211
17645741,0.276367,-0.182373,0.948853,-1.953125,0.793457,0.122070
17662625,0.276611,-0.179199,0.949463,2.563476,-0.244141,-0.610352
17679948,0.268188,-0.197876,0.953735,4.638672,-0.793457,-1.037598
17697323,0.263672,-0.209595,0.956421,2.624511,0.061035,-0.793457
17714176,0.267334,-0.201416,0.956177,-1.953125,1.464844,0.305176
17731328,0.271484,-0.188354,0.952759,-2.136230,1.586914,0.671387
17748583,0.273804,-0.185913,0.949707,0.427246,0.976562,0.427246
17765672,0.274902,-0.186157,0.950195,2.380371,-0.305176,-0.061035
17782466,0.271118,-0.185669,0.952393,2.502441,-0.732422,-0.183105
17799797,0.269531,-0.188110,0.950684,1.464844,0.061035,-0.610352
17816960,0.270752,-0.190918,0.950684,-0.427246,1.464844,-0.549316
17834353,0.270874,-0.191528,0.954834,-1.159668,1.525879,-0.671387
17851722,0.270142,-0.185669,0.955811,-0.488281,1.342773,-1.159668
17868974,0.268677,-0.189575,0.954590,3.662109,1.037598,-1.586914
17886161,0.268188,-0.203735,0.950073,5.187988,0.915527,-1.525879
17903112,0.263672,-0.214111,0.951050,5.004883,0.488281,-1.220703
17919900,0.260132,-0.215332,0.951904,0.122070,1.220703,-0.122070
17936912,0.270386,-0.191040,0.948120,-2.014160,1.892090,0.488281
17953922,0.285034,-0.174316,0.943115,-0.305176,1.342773,0.244141
17970894,0.284790,-0.177979,0.943237,3.417969,-1.037598,-0.610352
17987993,0.279053,-0.190186,0.950073,3.417969,-1.892090,-0.793457
18005054,0.276245,-0.191284,0.954712,0.366211,-1.525879,-0.366211
18022094,0.270020,-0.190430,0.959717,-2.380371,0.488281,-0.244141
18039105,0.268921,-0.186401,0.957764,-2.746582,1.281738,-0.366211
18055992,0.268311,-0.185913,0.954346,-0.244141,1.159668,-0.854492
18072823,0.264282,-0.196167,0.948120,1.403808,0.854492,-0.915527
18089460,0.269165,-0.201538,0.943115,2.197266,0.366211,-0.549316
18106287,0.271362,-0.198730,0.944458,0.427246,-0.549316,-0.061035
18123558,0.268921,-0.185913,0.950806,-0.183105,-0.732422,-0.183105
18141018,0.269409,-0.183960,0.951538,0.183105,0.305176,-0.915527
18158136,0.273071,-0.184204,0.950195,1.281738,0.671387,-1.159668
18174760,0.278198,-0.186035,0.949951,2.136230,-0.244141,-1.342773
18191421,0.269409,-0.193359,0.953613,3.051758,-1.220703,-1.525879
18208399,0.269287,-0.193237,0.954224,-0.122070,1.586914,-1.281738
18225249,0.283936,-0.170654,0.953613,-1.708984,2.868652,-1.586914
18242153,0.287476,-0.168457,0.944824,-0.610352,2.807617,-3.295898
18259185,0.281006,-0.180908,0.942261,2.990722,1.403808,-4.455566
18276267,0.274658,-0.211182,0.946411,3.479004,0.976562,-4.455566
18293008,0.273926,-0.219604,0.950317,1.159668,0.732422,-3.356933
18310291,0.271240,-0.219604,0.953125,-2.197266,1.831055,-1.708984
18327304,0.273193,-0.214844,0.948730,-2.319336,2.014160,-1.159668
18344680,0.274292,-0.214478,0.947998,-1.464844,0.915527,0.000000
18361701,0.275635,-0.206787,0.951782,-0.854492,-0.610352,0.793457
18379019,0.274048,-0.191162,0.958130,-0.427246,-1.098633,0.671387
18396371,0.273926,-0.183350,0.958862,0.549316,-0.976562,0.061035
18413615,0.273193,-0.183472,0.959351,1.159668,-0.610352,0.000000
18430784,0.269897,-0.188843,0.957397,1.098633,-0.427246,-0.122070
18447849,0.267578,-0.188477,0.948975,-0.366211,0.305176,-0.061035
18465304,0.269897,-0.183838,0.945068,-0.610352,0.427246,-0.061035
18482353,0.276001,-0.178589,0.941040,0.305176,0.061035,-0.366211
18499215,0.277710,-0.187744,0.942139,2.380371,-1.098633,-1.037598
18516210,0.276611,-0.194458,0.946167,1.708984,-1.464844,-1.098633
18533143,0.277344,-0.194702,0.949707,0.366211,-1.037598,-0.793457
18550041,0.278687,-0.190308,0.950928,-0.366211,-0.854492,-0.671387
18567575,0.274536,-0.192383,0.957642,-0.061035,-0.732422,-1.037598
18584584,0.272827,-0.195312,0.963867,-0.671387,-0.061035,-1.037598
18601678,0.273560,-0.192627,0.962158,-1.647949,1.525879,-0.732422
18618900,0.282349,-0.192871,0.949463,-0.061035,1.770019,-0.305176
18635868,0.281860,-0.194092,0.944214,0.854492,1.098633,-0.244141
18653008,0.276855,-0.195679,0.947021,1.525879,-0.549316,-0.122070
18670153,0.272095,-0.192505,0.957764,-0.976562,0.610352,-0.244141
18687055,0.273315,-0.178345,0.957886,-2.197266,1.525879,-0.549316
18704412,0.275635,-0.175171,0.954956,-0.732422,2.319336,-1.342773
18721526,0.276978,-0.191895,0.948853,2.746582,1.403808,-1.586914
18738621,0.271484,-0.208862,0.943115,3.295898,0.915527,-1.342773
18755612,0.271851,-0.210327,0.942993,3.173828,0.610352,-0.305176
18772907,0.277832,-0.204102,0.943848,0.854492,1.403808,0.427246
18789952,0.286743,-0.181396,0.939453,-0.549316,1.892090,0.671387
18807156,0.290039,-0.172974,0.938477,-0.061035,1.708984,0.671387
18824227,0.289307,-0.180298,0.939697,1.953125,0.122070,0.000000
18840898,0.279053,-0.196167,0.945557,1.403808,-0.427246,-0.549316
18857792,0.274414,-0.198242,0.947510,-2.014160,-0.488281,-0.793457
18874879,0.271729,-0.188843,0.947266,-2.929687,-0.122070,-0.610352
18891781,0.274048,-0.188965,0.945435,-0.854492,0.366211,-0.732422
18908758,0.274902,-0.194092,0.946655,1.770019,-0.854492,-0.610352
18926170,0.276123,-0.196533,0.952148,1.708984,-1.464844,-0.488281
18943096,0.275513,-0.187744,0.955322,0.488281,-1.098633,-0.183105
18960535,0.276978,-0.183228,0.956177,0.732422,-0.183105,-0.061035
18977909,0.280640,-0.181885,0.959473,1.647949,-0.183105,-0.488281
18995124,0.281006,-0.184814,0.957520,2.380371,-0.427246,-1.403808
19012618,0.277588,-0.185791,0.954956,1.708984,0.061035,-1.464844
19029488,0.273071,-0.186890,0.953247,1.159668,0.671387,-1.403808
19046711,0.275757,-0.187866,0.952759,0.732422,1.342773,-1.220703
19063975,0.278076,-0.188721,0.952637,1.831055,1.403808,-1.281738
19081069,0.284790,-0.199585,0.948730,1.831055,1.403808,-1.464844
19098192,0.287964,-0.196045,0.946533,-0.305176,0.671387,-1.647949
19115564,0.283813,-0.190796,0.948364,1.159668,-0.366211,-1.098633
19133100,0.281250,-0.204712,0.947388,1.708984,-0.427246,-0.183105
19150441,0.285522,-0.198608,0.948120,0.366211,-0.244141,-0.244141
19167605,0.283569,-0.194824,0.948242,-0.915527,-0.549316,-0.549316
19184639,0.275635,-0.192383,0.950806,0.671387,-0.427246,-0.488281
19202071,0.277344,-0.192017,0.949463,0.854492,0.122070,-0.183105
19219345,0.281738,-0.191162,0.946167,0.854492,0.549316,-0.122070
19236371,0.281372,-0.194580,0.944946,1.403808,-0.244141,0.305176
19253224,0.281006,-0.193481,0.946777,1.220703,-0.610352,0.488281
19270187,0.283325,-0.188232,0.949829,0.915527,-0.793457,0.366211
19287326,0.286255,-0.179810,0.956177,1.708984,-0.366211,0.244141
19304324,0.284424,-0.179443,0.959961,2.075195,0.305176,0.183105
19321467,0.285889,-0.182129,0.960571,2.380371,1.342773,-0.305176
19338570,0.289673,-0.179443,0.961182,3.112793,1.647949,-1.037598
19355474,0.285522,-0.171387,0.958374,4.516602,1.525879,-1.464844
19372695,0.283081,-0.165405,0.959106,10.864257,1.708984,-2.563476
19390004,0.275146,-0.147339,0.962280,22.460936,5.187988,-3.906250
19407017,0.287354,-0.089600,0.951904,33.386230,7.812500,-6.225585
19423879,0.299683,-0.072632,0.943604,72.570801,8.056641,-15.441894
19441094,0.309692,-0.119385,0.931641,93.872063,5.859375,-20.385740
19458459,0.274292,-0.213013,0.927368,123.657219,4.760742,-28.015135
19475789,0.262695,-0.246338,0.922241,134.460449,11.535644,-32.287598
19493196,0.274902,-0.264038,0.900146,141.418457,17.761230,-40.405270
19510191,0.299561,-0.293213,0.870483,150.512695,17.150879,-45.898434
19527512,0.300415,-0.332764,0.850586,173.095688,12.695312,-54.565426
19544729,0.288696,-0.420776,0.803711,183.349594,8.422852,-60.302731
19561970,0.287842,-0.472900,0.757812,185.546860,6.042480,-62.316891
19578888,0.288208,-0.480713,0.726318,202.087387,-2.868652,-69.030762
19595939,0.278198,-0.490356,0.651367,241.882309,-20.385740,-83.068840
19613297,0.230347,-0.569946,0.579834,267.517090,-30.273436,-91.003410
19630421,0.194336,-0.636597,0.545654,308.410645,-42.541500,-102.783195
19647496,0.130615,-0.746948,0.461670,323.791473,-44.555660,-108.337395
19664938,0.080688,-0.820801,0.350098,330.139130,-45.593258,-111.145012
19681872,0.048096,-0.902100,0.293579,345.153778,-46.081539,-110.107414
19699264,-0.009644,-1.054321,0.187500,324.645966,-40.405270,-94.604485
19716473,-0.021729,-1.050537,0.093506,306.884766,-38.391113,-88.806145
19733965,-0.022095,-1.049927,-0.009888,277.282715,-39.978027,-80.444328
19751809,-0.034790,-1.037842,-0.052979,253.173813,-44.921871,-67.993164
19769018,-0.072632,-1.002686,-0.115967,245.666489,-47.119137,-63.171383
19786223,-0.110474,-0.991333,-0.172119,240.905746,-44.616695,-61.462399
19803450,-0.109253,-0.965454,-0.199707,218.566879,-35.949707,-65.795898
19821021,-0.087280,-0.943604,-0.270874,209.594711,-32.775879,-64.086914
19838134,-0.076538,-0.909302,-0.366577,200.256332,-36.560059,-52.978512
19855694,-0.094604,-0.907715,-0.400635,209.228500,-44.616695,-47.424313
19872573,-0.154907,-0.964355,-0.417480,215.515121,-45.166012,-46.997066
19890447,-0.189453,-1.010376,-0.422363,191.528305,-33.386230,-45.654293
19907784,-0.175537,-0.980225,-0.445923,119.689934,-12.512206,-38.574219
19925039,-0.137207,-0.904419,-0.514038,79.406738,-2.075195,-24.414061
19942313,-0.124634,-0.873657,-0.570190,70.678711,-2.380371,-17.822266
19960148,-0.138428,-0.848511,-0.585571,65.917969,-9.460449,-12.817382
19977312,-0.149902,-0.841797,-0.590576,66.101074,-16.174316,-15.258788
19994862,-0.174683,-0.883667,-0.591675,61.096188,-15.991210,-14.465331
20011898,-0.160156,-0.896606,-0.596558,36.621094,-6.469726,-8.117676
20029400,-0.135498,-0.878418,-0.606201,10.864257,0.427246,0.671387
20046639,-0.130371,-0.848999,-0.612427,7.568359,-0.976562,4.150391
20064170,-0.149902,-0.867798,-0.598022,11.840819,-3.784179,6.774902
20081683,-0.151245,-0.893311,-0.593140,-0.488281,0.793457,7.507324
20098996,-0.143433,-0.902344,-0.591919,-16.906738,3.784179,9.094238
20116512,-0.131470,-0.840820,-0.602905,-44.982906,7.690429,13.061522
20133822,-0.127930,-0.816406,-0.603149,-42.114254,6.896972,15.319823
20151136,-0.123901,-0.829346,-0.578125,-33.386230,4.943848,15.075683
20168660,-0.127808,-0.924805,-0.550659,-24.169920,2.380371,13.916015
20185887,-0.135986,-0.972046,-0.541626,-48.583981,5.798339,20.324705
20203353,-0.154907,-1.030273,-0.539551,-101.867668,15.441894,35.339355
20220829,-0.126831,-0.975586,-0.538818,-128.234863,19.226074,42.968746
20238176,-0.094360,-0.861572,-0.511719,-150.451660,17.456055,51.086422
20255545,-0.090698,-0.843262,-0.480713,-123.596184,8.605957,45.166012
20272945,-0.079468,-0.893311,-0.406128,-109.313957,6.103515,39.245605
20290126,-0.084473,-0.988281,-0.347046,-108.581535,8.117676,34.179687
20307583,-0.087524,-1.013672,-0.330200,-136.840820,17.395020,40.893551
20324849,-0.060913,-1.006714,-0.299316,-156.860352,22.399900,45.104977
20342381,-0.030518,-0.959839,-0.273315,-184.814438,26.733397,50.842281
20359805,-0.020508,-0.943726,-0.250122,-180.725082,22.277830,50.720211
20377179,-0.001587,-0.946289,-0.176514,-172.912582,18.981934,47.912594
20394074,-0.001221,-0.983276,-0.107300,-164.733871,15.380858,42.419430
20410844,0.000854,-0.996826,-0.077148,-174.865707,16.845703,41.076656
20427529,0.016968,-1.005371,-0.021973,-182.983383,19.470215,44.006344
20444478,0.048340,-0.951660,0.037598,-194.946274,22.644041,52.490231
20461296,0.055908,-0.924805,0.069824,-188.110336,18.432617,51.086422
20478211,0.069458,-0.922485,0.133789,-180.480942,15.869140,46.874996
20495213,0.089233,-0.920410,0.195068,-175.231918,10.803222,41.503902
20511959,0.098145,-0.916504,0.220947,-178.527817,4.333496,40.832516
20528596,0.099243,-0.927490,0.271973,-178.894028,1.647949,41.870113
20545472,0.098999,-0.919800,0.300171,-184.509262,-1.525879,42.663570
20562423,0.106445,-0.892944,0.360107,-189.086899,-1.831055,42.419430
20579406,0.127686,-0.842529,0.416992,-193.969711,-3.173828,42.968746
20596766,0.128296,-0.823730,0.448120,-189.025864,-6.225585,42.175289
20613441,0.132324,-0.802856,0.508301,-187.438950,-5.920410,42.419430
20630488,0.159790,-0.752563,0.564087,-189.636215,-5.126953,46.325680
20647468,0.168091,-0.714233,0.592163,-182.922348,-7.568359,45.471188
20664735,0.175781,-0.634888,0.649780,-174.194321,-8.422852,42.541500
20682254,0.187500,-0.584473,0.701050,-151.306152,-7.385253,37.353516
20699286,0.197998,-0.573853,0.722046,-129.272461,-6.958007,32.714844
20716296,0.209473,-0.570190,0.759033,-120.788567,-8.422852,30.517576
20733556,0.198608,-0.542969,0.795044,-109.924309,-9.460449,27.893064
20750893,0.200317,-0.520142,0.813477,-101.562492,-7.080078,25.268553
20768134,0.207031,-0.506104,0.837646,-95.886223,-6.103515,24.169920
20785099,0.212158,-0.483398,0.852539,-88.745110,-3.845215,23.132322
20802081,0.215942,-0.468384,0.860107,-85.571281,-1.403808,21.606443
20819186,0.215332,-0.440308,0.879395,-84.228508,0.122070,20.385740
20836492,0.222046,-0.413940,0.889648,-80.810539,4.333496,19.165039
20853698,0.230469,-0.399658,0.891968,-76.049805,5.859375,17.761230
20870538,0.223755,-0.456543,0.897827,-74.462891,4.699707,17.883301
20887723,0.212280,-0.436646,0.905640,-92.773430,6.896972,21.728514
20904719,0.227173,-0.362427,0.906738,-111.694328,11.047362,23.925779
20922085,0.259277,-0.245850,0.906372,-105.163567,9.155273,22.460936
20938958,0.251465,-0.270020,0.916260,-77.209473,1.281738,16.784668
20956185,0.245972,-0.295776,0.922485,-70.617676,-2.685547,15.014647
20973415,0.251221,-0.235962,0.935059,-76.293945,-3.234863,15.258788
20990553,0.241699,-0.164917,0.947510,-73.120117,-5.187988,13.122558
21007525,0.234863,-0.154541,0.956421,-53.161617,-3.234863,7.812500
21024332,0.239624,-0.156982,0.962769,-43.762203,-0.915527,6.347656
21041458,0.249634,-0.167236,0.964600,-30.212400,0.488281,4.638672
21058402,0.247192,-0.159058,0.966919,-21.911619,0.732422,1.770019
21075430,0.248047,-0.141113,0.966797,-15.869140,1.525879,0.915527
21092199,0.263916,-0.155396,0.963379,0.976562,1.220703,-0.732422
21109314,0.265869,-0.177490,0.963379,14.770507,-3.601074,-2.868652
21126715,0.245728,-0.230591,0.971802,15.747069,-5.249023,-3.112793
21143501,0.230591,-0.243042,0.980591,3.356933,-1.159668,-0.854492
21160625,0.233643,-0.220459,0.979248,-9.582520,7.019042,2.502441
21177717,0.255371,-0.159180,0.970215,-7.690429,8.789063,2.990722
21194495,0.273071,-0.137573,0.959961,10.986327,5.004883,-1.586914
21211468,0.269165,-0.164185,0.959106,33.691406,-3.723144,-6.774902
21228689,0.239136,-0.256714,0.972290,36.071777,-4.943848,-6.408691
21245677,0.241577,-0.244385,0.976440,18.920898,0.976562,-4.028320
21262684,0.253662,-0.197388,0.971924,10.192870,5.371093,-4.638672
21279896,0.273804,-0.097778,0.958252,18.981934,4.699707,-7.263183
21297157,0.282227,-0.064331,0.942261,62.683102,-2.502441,-15.747069
21314416,0.271118,-0.102783,0.936646,121.154778,-13.122558,-25.878904
21331718,0.222778,-0.269775,0.941650,140.747070,-15.014647,-29.113768
21348899,0.190552,-0.385010,0.930908,142.211914,-7.385253,-28.808592
21366168,0.197754,-0.373657,0.909302,127.319328,0.061035,-27.099607
21383108,0.209229,-0.293213,0.866211,135.925293,-1.037598,-29.785154
21400278,0.208496,-0.338013,0.811646,183.166489,-8.972168,-40.466305
21417460,0.193481,-0.415894,0.792969,229.858383,-15.441894,-49.072262
21434918,0.168457,-0.613770,0.759399,237.609848,-15.380858,-50.598141
21452495,0.158813,-0.729492,0.721191,214.416489,-9.582520,-45.654293
21469491,0.170166,-0.689697,0.690796,175.292953,-5.432128,-39.916992
21486688,0.191772,-0.596558,0.620850,176.391586,-8.911133,-41.931149
21503661,0.156982,-0.689941,0.571533,219.177231,-18.371582,-47.668453
21520795,0.136597,-0.754272,0.540771,243.164047,-17.028809,-48.522945
21538097,0.111938,-0.828979,0.480835,241.699203,-14.648437,-49.072262
21554996,0.093506,-0.883301,0.418701,228.820786,-8.361816,-50.354000
21572012,0.096191,-0.899414,0.381592,211.303696,-4.882812,-49.072262
21589300,0.098022,-0.873779,0.300293,205.993637,-5.981445,-48.156734
21606502,0.083984,-0.864746,0.232422,218.444809,-12.512206,-50.231930
21623848,0.066162,-0.915894,0.204712,243.164047,-17.333984,-53.833004
21641142,0.029419,-1.015503,0.149902,240.356430,-16.784668,-53.833004
21658253,0.010376,-1.028564,0.069580,210.388168,-15.136718,-50.537106
21675191,0.008179,-0.993042,0.024780,189.270004,-17.272949,-45.410152
21692031,0.014648,-0.884644,-0.073486,193.237289,-20.874022,-45.471188
21709139,-0.016724,-0.965210,-0.149780,233.154282,-35.522461,-51.086422
21726561,-0.044556,-1.035889,-0.172119,247.070297,-42.480465,-48.767086
21743915,-0.072144,-1.056885,-0.207275,226.562485,-39.123535,-44.189449
21761487,-0.061646,-0.936279,-0.273193,180.175766,-29.846189,-34.301758
21778679,-0.043213,-0.882568,-0.317993,182.373032,-30.578611,-29.907225
21796162,-0.025146,-0.890991,-0.396362,195.251450,-34.973145,-28.320311
21813546,-0.085205,-0.930176,-0.431274,221.496567,-43.945309,-25.756834
21830707,-0.105957,-0.916870,-0.447266,210.693344,-38.818359,-33.203125
21847825,-0.092285,-0.888916,-0.501831,195.556625,-30.029295,-33.386230
21865200,-0.056885,-0.835205,-0.576294,174.377426,-14.343261,-22.460936
21882584,-0.042603,-0.809937,-0.613525,165.466293,-14.648437,-15.747069
21899876,-0.049194,-0.781860,-0.670898,166.259750,-26.855467,-8.178711
21917279,-0.099976,-0.791992,-0.700317,167.175278,-30.090330,-8.239746
21934645,-0.087524,-0.758423,-0.727173,138.977051,-25.878904,-22.399900
21952112,-0.059204,-0.706177,-0.753540,104.858391,-21.118162,-24.963377
21969448,-0.039917,-0.637085,-0.795044,107.910149,-23.071287,-20.874022
21986716,-0.059204,-0.691772,-0.806641,132.141113,-28.198240,-13.854980
22004122,-0.072876,-0.718750,-0.804077,121.276848,-25.024412,-9.643555
22021477,-0.086304,-0.750366,-0.802490,101.318352,-18.371582,-7.690429
22038583,-0.067993,-0.690186,-0.827881,50.170895,0.000000,0.427246
22056049,-0.043213,-0.614380,-0.854004,14.709472,8.239746,8.117676
22073400,-0.042603,-0.551636,-0.883179,17.395020,6.286621,10.742187
22090465,-0.056274,-0.610962,-0.865845,31.372068,2.014160,9.826660
22107672,-0.060303,-0.649414,-0.852539,12.329101,5.737304,9.704590
22125051,-0.053833,-0.652832,-0.846191,-8.483887,9.887695,11.657714
22142473,-0.039429,-0.607300,-0.856079,-43.029781,14.099120,15.319823
22160077,-0.036255,-0.592041,-0.851685,-50.720211,11.291503,13.671874
22177726,-0.047852,-0.623291,-0.823730,-50.292965,11.230468,13.366698
22195179,-0.056885,-0.688843,-0.798340,-56.152340,13.793944,16.662598
22212467,-0.061646,-0.755615,-0.801025,-82.458488,20.751951,25.207518
22229945,-0.059937,-0.777954,-0.802490,-127.258293,24.291990,31.982420
22247194,-0.086060,-0.808350,-0.791138,-148.803711,25.390623,35.705566
22264534,-0.096436,-0.827393,-0.776733,-193.115219,33.325195,41.931149
22282047,-0.086060,-0.846191,-0.768555,-233.154282,40.954586,49.072262
22299371,-0.061890,-0.861572,-0.732056,-247.558578,41.076656,53.527828
22316654,-0.041870,-0.842773,-0.661743,-263.061523,33.752441,55.664059
22334094,-0.029175,-0.838501,-0.622559,-258.666992,22.460936,46.752926
22351218,0.000366,-0.865479,-0.527588,-246.337875,15.624999,42.968746
22368221,-0.015625,-0.925293,-0.402832,-210.021957,4.516602,43.334957
22385260,-0.022949,-0.959106,-0.343994,-193.542465,6.347656,46.752926
22402569,-0.004272,-0.992432,-0.260742,-200.561508,11.718749,46.997066
22419755,0.031006,-0.968018,-0.203247,-228.393539,22.399900,46.325680
22437083,0.050659,-0.931885,-0.177979,-240.234360,24.291990,48.522945
22454519,0.085815,-0.891846,-0.115967,-232.482895,20.996092,50.781246
22471730,0.081665,-0.927002,-0.030884,-199.401840,9.887695,52.246090
22488919,0.078247,-0.958496,0.012451,-183.532700,3.479004,43.945309
22505912,0.071167,-0.994263,0.099487,-191.833481,4.150391,40.283199
22522764,0.084229,-0.978271,0.159912,-220.825180,11.291503,43.884274
22540304,0.105591,-0.961304,0.183228,-239.624008,16.784668,56.152340
22557604,0.136841,-0.940796,0.242798,-242.980942,16.601562,62.561031
22574958,0.157104,-0.880859,0.308960,-246.948227,11.901855,65.551758
22592045,0.159302,-0.838623,0.346436,-245.117172,7.141113,59.875484
22608853,0.179199,-0.762573,0.422485,-240.234360,5.920410,55.053707
22625717,0.203491,-0.718994,0.503296,-221.740707,3.845215,47.851559
22642673,0.206543,-0.705933,0.541626,-199.768051,4.211426,49.072262
22659922,0.224121,-0.695679,0.599243,-192.932114,5.187988,50.781246
22677099,0.271118,-0.616455,0.638550,-191.284164,2.563476,50.109859
22693810,0.280518,-0.558716,0.661133,-177.551254,-8.972168,41.564938
22710516,0.256226,-0.506226,0.718018,-162.597641,-14.099120,36.010742
22727251,0.216675,-0.546631,0.760498,-136.840820,-12.756347,32.287598
22743906,0.229004,-0.532349,0.771606,-142.333984,-2.136230,36.743164
22761032,0.272217,-0.423218,0.799194,-145.690918,-0.366211,37.109375
22777994,0.276855,-0.378418,0.817261,-122.924797,-4.089355,30.273436
22794749,0.256470,-0.399902,0.850708,-89.172356,-7.080078,23.986814
22811520,0.242676,-0.494995,0.861084,-87.341301,-6.042480,23.864744
22828570,0.249390,-0.488159,0.862671,-116.394035,-2.441406,28.015135
22845841,0.268677,-0.384399,0.870972,-130.859375,-1.647949,31.372068
22862705,0.281738,-0.282715,0.888428,-136.718750,-3.479004,33.081055
22879625,0.283813,-0.243896,0.894775,-123.840324,-6.530761,27.770994
22896887,0.289551,-0.177246,0.911255,-116.271965,-8.300781,24.475096
22913961,0.283936,-0.144653,0.934692,-100.402824,-11.779784,16.113281
22930706,0.278076,-0.117798,0.940796,-83.496086,-10.803222,11.840819
22948075,0.284668,-0.075562,0.947510,-70.434570,-10.314940,10.253905
22965457,0.277710,-0.128662,0.960937,-41.687008,-11.718749,5.676269
22982828,0.272705,-0.152710,0.969238,-39.550781,-8.300781,1.159668
23000122,0.274048,-0.121948,0.977783,-46.569820,-2.563476,0.061035
23017266,0.285034,-0.089478,0.972656,-42.541500,-2.624511,-0.244141
23034807,0.285034,-0.094727,0.971558,-27.099607,-6.774902,-2.624511
23052086,0.268066,-0.131226,0.977661,-20.141600,-9.155273,-4.089355
23069552,0.256836,-0.136108,0.985596,-21.667479,-8.605957,-4.211426
23086902,0.256470,-0.099487,0.990356,-23.010252,-4.394531,-2.624511
23103715,0.259644,-0.094971,0.992065,-14.099120,0.305176,-1.464844
23120687,0.271362,-0.098633,0.987305,-10.681151,1.220703,-1.525879
23137850,0.276001,-0.089600,0.984131,-6.286621,-1.708984,-2.075195
23154876,0.273804,-0.072021,0.980591,4.272461,-6.713867,-3.784179
23171754,0.258545,-0.087891,0.985596,10.559081,-7.812500,-5.126953
23188980,0.250610,-0.112915,0.990845,16.601562,-5.493164,-6.103515
23206070,0.240479,-0.164429,1.000610,7.446289,0.915527,-2.624511
23223218,0.247437,-0.148193,0.993652,-0.671387,4.394531,-0.244141
23240162,0.262451,-0.112305,0.985596,-7.263183,6.164550,0.854492
23257251,0.277710,-0.072388,0.974243,6.408691,0.915527,-2.319336
23274642,0.262573,-0.093750,0.969971,13.000487,-0.488281,-3.601074
23291869,0.257935,-0.107910,0.970825,19.104004,0.427246,-3.173828
23308914,0.250244,-0.150513,0.971924,16.174316,3.845215,-1.464844
23325914,0.248413,-0.177368,0.969604,7.995605,6.713867,-0.305176
23342815,0.258423,-0.154663,0.963745,-10.925292,10.131835,1.525879
23359933,0.281982,-0.092529,0.942139,-12.817382,8.300781,1.464844
23376869,0.275757,-0.079590,0.936279,-0.976562,1.159668,-1.342773
23394150,0.264526,-0.099243,0.942993,14.038085,-2.258301,-2.563476
23411597,0.251099,-0.155273,0.959961,12.634276,0.976562,-0.488281
23428796,0.258789,-0.169067,0.964111,5.676269,3.540039,0.793457
23445891,0.268311,-0.143799,0.960815,-7.141113,6.530761,2.319336
23462802,0.292725,-0.094482,0.947144,-6.713867,4.821777,1.953125
23479832,0.281250,-0.101929,0.952515,6.225585,-3.601074,-0.427246
23496833,0.263550,-0.127563,0.960937,14.343261,-6.103515,-2.197266
23513937,0.247925,-0.159668,0.969238,11.108397,-3.601074,-2.136230
23530887,0.262329,-0.144287,0.960083,-0.122070,1.647949,-0.671387
23547977,0.266357,-0.132080,0.956909,-4.150391,2.624511,0.183105
23564991,0.270386,-0.116455,0.957031,-3.295898,2.319336,0.366211
23581588,0.277222,-0.119507,0.957275,1.831055,-0.549316,-0.061035
23598697,0.273804,-0.128662,0.961426,5.798339,-3.906250,-1.159668
23616117,0.259033,-0.142334,0.975464,5.004883,-3.967285,-1.220703
23633448,0.258179,-0.142822,0.980835,-0.793457,-0.976562,0.061035
23650355,0.262573,-0.131836,0.980103,-5.615234,2.136230,1.464844
23667542,0.269531,-0.112061,0.972900,-4.760742,2.380371,1.159668
23684490,0.265625,-0.115967,0.964111,0.671387,1.647949,-0.488281
23701583,0.265259,-0.122681,0.960449,4.882812,2.014160,-0.793457
23718680,0.267334,-0.135498,0.957153,5.432128,2.197266,-0.732422
23735509,0.268799,-0.146606,0.957153,2.502441,2.990722,-0.061035
23752340,0.269897,-0.139648,0.958618,-4.272461,4.516602,1.037598
23769296,0.280029,-0.113647,0.954590,-5.310058,4.333496,1.098633
23786203,0.286377,-0.103271,0.951416,-0.305176,1.953125,-0.305176
23803427,0.282104,-0.115479,0.955566,7.263183,-0.976562,-1.770019
23820492,0.268921,-0.146973,0.966187,7.446289,-0.915527,-1.586914
23837741,0.268433,-0.150513,0.967529,0.122070,1.831055,-0.122070
23855011,0.273682,-0.138062,0.964478,-5.676269,3.845215,0.793457
23872295,0.285156,-0.110229,0.953979,-4.943848,3.540039,0.671387
23889132,0.283203,-0.111816,0.950073,2.075195,0.915527,-0.488281
23906072,0.280518,-0.122925,0.949707,6.896972,-1.403808,-1.037598
23923302,0.273438,-0.144897,0.955811,6.652832,-1.831055,-0.976562
23940236,0.273315,-0.148193,0.962891,1.953125,-0.671387,-0.366211
23957254,0.273315,-0.143799,0.965088,-2.075195,0.244141,0.305176
23974172,0.269165,-0.130859,0.968262,-2.807617,0.915527,0.488281
23990918,0.267944,-0.126831,0.968750,-1.647949,2.624511,0.732422
24007970,0.271606,-0.123169,0.970581,-0.610352,3.356933,0.610352
24025141,0.275391,-0.126953,0.972900,1.342773,4.028320,0.305176
24042056,0.274292,-0.132324,0.972900,1.831055,4.882812,0.305176
24058802,0.268921,-0.134521,0.968994,0.854492,6.286621,0.488281
24075790,0.278687,-0.116577,0.958252,-0.732422,10.986327,1.037598
24093137,0.289185,-0.109619,0.953735,3.967285,11.657714,1.403808
24109630,0.302856,-0.115967,0.953857,7.324218,9.765625,0.854492
24126518,0.301758,-0.138916,0.948975,9.948730,4.333496,-0.671387
24143758,0.295288,-0.147827,0.945068,5.432128,0.793457,-1.586914
24160938,0.287720,-0.145996,0.937256,1.464844,0.671387,-1.647949
24177795,0.296631,-0.135254,0.932129,-2.685547,0.915527,-1.403808
24194918,0.297974,-0.133667,0.933594,-0.610352,-1.220703,-1.098633
24212017,0.294800,-0.135498,0.943481,0.610352,-2.380371,-0.976562
24228964,0.295654,-0.133789,0.950562,1.403808,-3.845215,-0.488281
24246375,0.294189,-0.133911,0.953735,0.671387,-3.845215,-0.061035
24263734,0.290161,-0.134766,0.961548,-0.305176,-2.990722,0.000000
24280847,0.293335,-0.123657,0.966797,-2.380371,-1.159668,-0.427246
24297932,0.293335,-0.120728,0.968262,-0.305176,-1.159668,-1.220703
24314970,0.287354,-0.125488,0.970459,1.953125,-1.098633,-1.525879
24332136,0.282104,-0.151855,0.967041,5.798339,-0.183105,-1.342773
24349253,0.282349,-0.162964,0.964233,2.624511,2.136230,-0.122070
24366453,0.288818,-0.154053,0.959351,-0.610352,3.112793,0.366211
24383224,0.296753,-0.125366,0.955933,-3.662109,3.051758,0.488281
24400436,0.296631,-0.116333,0.954346,0.122070,1.159668,-0.366211
24417405,0.294922,-0.121094,0.950806,3.356933,0.122070,-0.549316
24434235,0.290894,-0.139404,0.951294,7.202148,-1.281738,-0.854492
24451746,0.286499,-0.147705,0.954224,3.784179,-0.915527,-0.549316
24468670,0.285034,-0.143066,0.961182,0.000000,-0.122070,-0.366211
24485513,0.291870,-0.119873,0.959595,-4.211426,0.854492,-0.366211
24502658,0.291016,-0.115356,0.958740,-1.037598,0.549316,-1.220703
24520070,0.289795,-0.120117,0.952148,0.610352,0.732422,-1.708984
24536862,0.292236,-0.125122,0.944824,2.990722,0.244141,-2.197266
24553731,0.290405,-0.127075,0.945312,3.967285,-0.854492,-2.685547
24570806,0.287109,-0.143433,0.951782,3.356933,-0.793457,-2.746582
24588130,0.286133,-0.151245,0.955078,0.061035,0.000000,-1.953125
24604934,0.290527,-0.148437,0.957153,-1.647949,-0.366211,-1.525879
24622311,0.290649,-0.143311,0.957520,-0.427246,-0.793457,-1.342773
24639323,0.290161,-0.145874,0.956909,1.831055,-0.732422,-0.549316
24656765,0.291138,-0.143799,0.958374,1.464844,-0.549316,-0.061035
24673957,0.292236,-0.137451,0.960571,1.281738,-0.488281,-0.122070
24690759,0.290771,-0.140625,0.961670,0.793457,0.305176,0.305176
24707858,0.292480,-0.140015,0.958862,-0.915527,1.220703,0.488281
24724760,0.297607,-0.124146,0.952637,-0.122070,0.976562,0.305176
24741798,0.298096,-0.122437,0.949951,3.967285,-0.183105,-0.488281
24759192,0.296509,-0.137817,0.948120,4.272461,-0.610352,-1.098633
24776420,0.293701,-0.148437,0.950195,2.014160,-0.427246,-0.976562
24793432,0.291992,-0.145508,0.951172,-4.516602,0.183105,-0.122070
24810162,0.291138,-0.129517,0.957031,-5.920410,0.122070,-0.122070
24827256,0.289429,-0.130127,0.961426,-2.136230,-0.671387,-0.427246
24844347,0.287842,-0.136475,0.964233,4.882812,-1.892090,-0.610352
24861753,0.282227,-0.156006,0.965088,5.615234,-1.525879,-0.305176
24878698,0.284424,-0.150757,0.958618,2.990722,-0.549316,0.305176
24895356,0.288574,-0.139038,0.955444,-1.403808,0.854492,0.854492
24912195,0.289063,-0.120361,0.953979,-1.770019,1.220703,0.793457
24929398,0.287231,-0.115479,0.953003,0.366211,1.220703,-0.244141
24946768,0.286865,-0.116211,0.950806,2.624511,0.427246,-2.014160
24964016,0.283203,-0.124023,0.945435,2.990722,0.000000,-2.441406
24980850,0.281738,-0.134766,0.942383,1.953125,0.244141,-2.807617
24997917,0.283203,-0.136230,0.941040,-0.793457,0.732422,-1.953125
25014607,0.290527,-0.133667,0.940430,-0.976562,0.305176,-1.403808
25031743,0.291992,-0.129761,0.947876,1.159668,-1.647949,-1.281738
25048857,0.290283,-0.134399,0.950195,2.441406,-2.441406,-1.831055
25065669,0.292603,-0.146729,0.955444,1.220703,-2.136230,-1.770019
25082501,0.293213,-0.146484,0.961914,-2.380371,-1.770019,-1.281738
25099282,0.290771,-0.140869,0.965576,-2.197266,-1.708984,-1.586914
25116068,0.287109,-0.137573,0.971436,-1.403808,-1.281738,-1.708984
25133014,0.289917,-0.135986,0.971680,-0.183105,-0.366211,-1.647949
25150208,0.293091,-0.137085,0.967529,3.112793,-1.159668,-1.708984
25167535,0.286743,-0.149414,0.969482,3.906250,-1.220703,-1.892090
25185036,0.288208,-0.149658,0.969360,0.915527,0.122070,-1.342773
25202044,0.290771,-0.140991,0.966309,-2.380371,1.220703,-0.610352
25218829,0.294312,-0.124756,0.956543,-2.441406,1.342773,-0.793457
25236258,0.292969,-0.118652,0.950806,0.305176,0.610352,-1.342773
25253012,0.290894,-0.122681,0.951050,4.516602,-0.549316,-1.892090
25269977,0.283325,-0.143188,0.952759,5.432128,-0.793457,-1.953125
25287112,0.280151,-0.152588,0.952026,1.953125,-0.061035,-1.403808
25303978,0.282471,-0.146362,0.950073,-1.159668,0.305176,-1.098633
25321057,0.287354,-0.124756,0.949585,-3.234863,-0.305176,-1.220703
25338393,0.288696,-0.118530,0.955322,1.892090,-1.403808,-1.708984
25355474,0.285522,-0.138184,0.959473,4.943848,-0.488281,-2.258301
25372649,0.285156,-0.157227,0.960449,3.112793,0.671387,-2.014160
25389475,0.289185,-0.152710,0.957764,-2.014160,1.892090,-1.281738
25406893,0.291626,-0.143677,0.951904,-0.549316,0.488281,-1.464844
25424132,0.287598,-0.145630,0.957031,0.915527,-0.061035,-1.708984
25441583,0.287598,-0.146118,0.958496,2.380371,-0.305176,-1.586914
25458898,0.288452,-0.152832,0.955688,2.502441,0.488281,-0.732422
25475898,0.290161,-0.154175,0.954834,1.464844,0.976562,-0.061035
25493062,0.293213,-0.145264,0.954590,-0.549316,0.976562,0.671387
25509837,0.294922,-0.132935,0.954468,0.915527,-0.183105,-0.061035
25526812,0.289673,-0.140991,0.953003,1.403808,-0.244141,-0.244141
25544335,0.290283,-0.143555,0.950806,0.183105,0.244141,0.305176
25561021,0.291870,-0.137451,0.948364,-0.671387,0.183105,0.488281
25577896,0.290771,-0.125732,0.950317,-0.915527,-0.427246,0.244141
25594874,0.291748,-0.124878,0.953735,1.281738,-0.976562,-0.366211
25612059,0.290649,-0.137329,0.960571,2.075195,-1.098633,-0.610352
25628880,0.284302,-0.141235,0.965820,1.037598,-0.854492,-0.854492
25645982,0.284058,-0.137207,0.964600,-0.366211,0.000000,-1.037598
25662878,0.286011,-0.134766,0.960571,-0.061035,0.427246,-1.159668
25680236,0.285767,-0.141357,0.956665,0.915527,1.159668,-0.854492
25696855,0.288696,-0.141602,0.953735,-0.305176,1.342773,-0.854492
25714146,0.292603,-0.131470,0.951416,-0.366211,0.549316,-0.915527
25731094,0.284424,-0.137329,0.955566,2.075195,-1.159668,-1.159668
25748186,0.280396,-0.143677,0.957520,1.403808,-0.183105,-0.915527
25765482,0.282227,-0.138550,0.954834,-0.610352,0.793457,-0.732422
25782410,0.289795,-0.130127,0.951538,-1.831055,0.915527,-1.220703
25799531,0.288452,-0.134277,0.950195,0.549316,-0.610352,-1.586914
25816618,0.288086,-0.142212,0.947388,1.831055,-1.220703,-1.525879
25833647,0.291870,-0.148560,0.949951,3.417969,-2.441406,-1.159668
25850933,0.290039,-0.150513,0.952393,2.075195,-2.563476,-0.305176
25868030,0.288452,-0.145142,0.958496,0.427246,-2.014160,0.305176
25885014,0.293945,-0.129517,0.961792,-2.258301,-0.732422,0.793457
25902268,0.294678,-0.122559,0.962036,-1.403808,-0.671387,-0.366211
25919098,0.290649,-0.120361,0.962402,0.488281,-0.976562,-1.037598
25935868,0.281860,-0.145630,0.963501,4.699707,-1.281738,-1.892090
25953173,0.280151,-0.158813,0.962402,3.417969,0.122070,-1.220703
25970545,0.285034,-0.163208,0.958008,0.732422,0.793457,-0.671387
25987936,0.291870,-0.143921,0.961060,-2.624511,0.244141,-0.427246
26005476,0.290283,-0.137817,0.963501,0.000000,-0.366211,-0.122070
26022863,0.284058,-0.140137,0.966431,1.892090,0.061035,0.366211
26040223,0.286499,-0.138306,0.962402,2.380371,1.098633,1.037598
26057098,0.287231,-0.130859,0.958008,0.610352,1.037598,-0.061035
26074122,0.284790,-0.120239,0.951660,0.244141,0.976562,-0.610352
26091394,0.285645,-0.120117,0.947876,0.549316,1.342773,-0.793457
26108744,0.286499,-0.119873,0.945068,1.098633,1.281738,-1.159668
26125807,0.286987,-0.127563,0.939819,1.953125,0.732422,-1.525879
26143106,0.283691,-0.153442,0.939331,2.136230,-0.366211,-1.892090
26160318,0.284180,-0.157227,0.943604,-2.014160,-0.671387,-1.525879
26177984,0.286133,-0.137573,0.950195,-3.417969,-0.976562,-1.342773
26195164,0.285645,-0.128662,0.953247,-0.305176,-1.647949,-1.647949
26212624,0.284302,-0.141235,0.953247,4.455566,-1.708984,-1.831055
26229566,0.284790,-0.165039,0.958130,4.028320,-1.220703,-1.525879
26246465,0.290283,-0.147583,0.958374,-0.122070,-0.305176,-0.732422
26263434,0.292480,-0.137695,0.956421,0.305176,-0.915527,-0.854492
26280329,0.290405,-0.139038,0.957642,2.014160,-1.403808,-1.037598
26297511,0.290161,-0.145142,0.961060,3.356933,-1.586914,-0.854492
26314231,0.290649,-0.144653,0.961914,1.525879,-0.793457,-0.549316
26330947,0.293335,-0.138062,0.962036,0.183105,-0.244141,-0.427246
26347635,0.293091,-0.134277,0.966064,-0.732422,0.122070,-0.488281
26364463,0.291382,-0.135742,0.968384,0.732422,-0.122070,-0.671387
26381451,0.286499,-0.145386,0.968262,1.464844,-0.122070,-0.732422
26398327,0.285645,-0.147705,0.964966,1.525879,0.305176,-0.305176
26415051,0.287231,-0.143188,0.958374,1.647949,0.244141,-0.122070
26431761,0.284058,-0.144287,0.959229,2.380371,0.061035,-0.366211
26448599,0.283813,-0.147339,0.961548,0.122070,0.854492,0.183105
26465299,0.287354,-0.135254,0.962769,-1.708984,1.159668,0.671387
26482548,0.286499,-0.126587,0.957397,-1.037598,0.610352,0.183105
26499348,0.282837,-0.133423,0.956543,1.403808,-0.061035,-0.610352
26516589,0.280273,-0.140991,0.958740,0.915527,0.183105,-0.488281
26533651,0.283081,-0.128784,0.956909,-0.976562,0.854492,-0.244141
26550845,0.281250,-0.126099,0.955566,0.671387,0.732422,-0.671387
26567725,0.278564,-0.136597,0.950439,1.770019,0.915527,-1.037598
26584604,0.283813,-0.147217,0.944824,1.708984,1.037598,-1.831055
26601958,0.284424,-0.147949,0.942871,-0.366211,0.183105,-2.075195
26618819,0.282715,-0.145386,0.941406,-0.915527,-0.427246,-1.831055
26636186,0.287476,-0.143066,0.946167,-0.244141,-1.281738,-0.793457
26653405,0.291504,-0.141113,0.948120,0.122070,-1.831055,0.244141
26670571,0.294434,-0.133911,0.950806,0.122070,-2.197266,0.183105
26687916,0.291260,-0.132446,0.960693,0.610352,-2.746582,-0.732422
26705283,0.289551,-0.134277,0.965942,0.854492,-2.014160,-1.220703
26722454,0.286621,-0.143799,0.972290,0.488281,-1.098633,-1.220703
26739441,0.285522,-0.146606,0.971680,-1.220703,0.671387,-1.098633
26756755,0.286255,-0.145020,0.966919,-0.610352,1.098633,-0.915527
26774044,0.286865,-0.150391,0.960937,1.098633,0.854492,-0.854492
26791177,0.283691,-0.159302,0.963501,2.563476,0.671387,-0.488281
26807938,0.282837,-0.152832,0.960937,-1.220703,1.159668,-0.061035
26825279,0.287231,-0.127563,0.950439,-2.014160,1.220703,-0.183105
26842667,0.289917,-0.128540,0.946411,0.976562,0.610352,-0.610352
26859759,0.289307,-0.137573,0.949219,3.417969,-0.610352,-0.671387
26876884,0.283936,-0.143311,0.957886,2.441406,-0.793457,-0.610352
26894452,0.284302,-0.133057,0.957642,-0.915527,0.244141,-0.305176
26911623,0.286865,-0.126465,0.955566,-1.647949,0.976562,-0.549316
26928562,0.289795,-0.127441,0.952393,-0.488281,0.732422,-0.854492
26945765,0.287720,-0.139648,0.953735,1.586914,0.305176,-1.647949
26963086,0.289185,-0.145020,0.953613,1.159668,0.244141,-1.586914
26980370,0.289185,-0.148437,0.952393,0.793457,-0.061035,-1.220703
26997618,0.286133,-0.146729,0.957153,1.220703,-0.305176,-0.610352
27015042,0.285278,-0.147095,0.959717,0.976562,0.183105,-0.610352
27032287,0.288818,-0.143433,0.959961,0.366211,0.427246,-0.610352
27049710,0.292969,-0.133911,0.956909,-0.244141,0.122070,-0.244141
27066538,0.294067,-0.128418,0.956421,0.671387,-0.549316,0.122070
27083890,0.293335,-0.126465,0.956909,1.403808,-0.671387,-0.183105
27101250,0.288574,-0.132568,0.954102,2.136230,0.122070,-0.915527
27118359,0.287109,-0.137085,0.953247,1.281738,1.159668,-1.098633
27135448,0.283936,-0.144043,0.954712,0.122070,1.342773,-1.159668
27152345,0.282227,-0.138428,0.951660,-2.929687,1.770019,-1.281738
27169716,0.283081,-0.131104,0.949219,-2.502441,1.342773,-1.525879
27186714,0.281494,-0.132568,0.950806,0.000000,0.549316,-2.075195
27203828,0.273438,-0.154175,0.956177,4.516602,0.183105,-2.746582
27220644,0.274658,-0.158936,0.957886,3.417969,1.403808,-1.831055
27237841,0.282349,-0.152588,0.953003,1.953125,1.647949,-1.403808
27255118,0.289429,-0.129761,0.948242,0.366211,1.098633,-1.220703
27272097,0.293701,-0.122437,0.945923,3.051758,-0.610352,-1.647949
27289212,0.294434,-0.124390,0.951172,5.126953,-1.708984,-2.014160
27306388,0.285278,-0.137695,0.966553,5.798339,-2.624511,-2.624511
27323562,0.284546,-0.138306,0.972778,0.976562,-0.854492,-2.075195
27340400,0.289307,-0.126953,0.977417,-0.549316,0.122070,-2.258301
27357018,0.293823,-0.122314,0.975952,1.098633,1.525879,-3.601074
27373569,0.294678,-0.125366,0.974854,6.042480,1.464844,-4.943848
27390293,0.293579,-0.139526,0.970459,8.178711,1.220703,-5.187988
27407351,0.299438,-0.130127,0.964233,12.084960,0.915527,-5.187988
27424202,0.301758,-0.122925,0.961426,19.226074,0.366211,-6.713867
27440785,0.305542,-0.103638,0.957520,25.207518,-0.427246,-7.934570
27457900,0.306030,-0.094849,0.954956,44.250484,-2.685547,-10.986327
27475241,0.304199,-0.091675,0.952271,68.908691,-5.065917,-15.808105
27492521,0.296875,-0.101196,0.943848,82.092278,-6.408691,-18.798828
27509510,0.291626,-0.102051,0.936401,112.121574,-8.544922,-27.404783
27526377,0.280029,-0.134277,0.915283,131.469727,-10.131835,-32.348633
27543397,0.262207,-0.210693,0.887695,173.095688,-12.939452,-41.259762
27560769,0.261108,-0.251099,0.869263,209.167465,-14.160155,-49.804684
27577902,0.257690,-0.341675,0.817749,223.937973,-15.991210,-53.161617
27594913,0.215210,-0.432617,0.776733,243.469223,-20.507811,-58.105465
27612050,0.210815,-0.458252,0.750000,258.178711,-22.094725,-62.744137
27629267,0.218872,-0.461670,0.681030,270.751953,-24.291990,-65.917969
27646321,0.176514,-0.565796,0.595947,315.856934,-34.423828,-77.087402
27663380,0.139771,-0.666016,0.557617,356.262177,-38.391113,-82.824699
27680673,0.079102,-0.812622,0.473633,360.961884,-34.973145,-81.359856
27698039,0.057495,-0.911255,0.359741,357.055634,-26.306150,-75.622559
27715443,0.047485,-0.963257,0.298828,351.501434,-20.751951,-69.030762
27732930,0.028198,-1.044312,0.180908,332.458466,-15.136718,-56.335445
27749919,0.040771,-1.040405,0.063721,319.702148,-15.808105,-50.903316
27767433,0.038452,-1.037720,0.014282,304.992676,-23.742674,-44.738766
27784506,0.013550,-1.026489,-0.079346,290.710449,-26.916502,-41.076656
27801513,0.012329,-0.956909,-0.182739,287.963867,-28.381346,-39.672852
27818317,0.000122,-0.993530,-0.229004,291.625977,-33.020020,-33.386230
27835867,-0.020508,-1.075562,-0.301880,264.221191,-31.249998,-26.367186
27853385,-0.000122,-1.005859,-0.350830,238.708481,-29.418943,-23.986814
27871264,0.012817,-0.910645,-0.422363,202.880844,-31.066893,-20.385740
27889323,0.011475,-0.866089,-0.467041,202.636703,-39.184570,-14.709472
27907152,0.014526,-0.808472,-0.529541,215.881332,-41.870113,-15.197753
27925012,-0.012085,-0.824829,-0.563354,246.887192,-41.992184,-19.958496
27943402,-0.006836,-0.795654,-0.620239,244.018539,-35.766602,-22.949217
27961455,-0.003906,-0.762817,-0.662354,228.088364,-28.442381,-20.019531
27979419,-0.012085,-0.738403,-0.750366,224.304184,-25.573729,-17.395020
27997439,0.008301,-0.717773,-0.792725,215.942368,-25.085447,-11.230468
28015037,0.014893,-0.688477,-0.809814,194.152817,-28.991697,-7.385253
28032929,0.013062,-0.668945,-0.816284,160.888657,-26.672361,-4.150391
28050284,-0.007568,-0.640869,-0.828369,142.028809,-22.033689,-0.976562
28068016,0.004639,-0.583374,-0.842529,101.135246,-6.774902,3.479004
28086274,0.015869,-0.558350,-0.853516,67.565918,5.249023,7.995605
28103563,0.036743,-0.520752,-0.883789,44.616695,7.324218,8.544922
28121331,0.051025,-0.479248,-0.926025,37.231445,3.356933,7.324218
28139425,0.020874,-0.507446,-0.937500,34.362793,-7.263183,7.568359
28157243,0.012573,-0.529663,-0.930786,21.789549,-7.873535,7.324218
28175239,0.024048,-0.593872,-0.916504,-17.517090,-2.075195,12.817382
28193014,0.041138,-0.604370,-0.933105,-44.006344,-0.427246,16.174316
28210748,0.053589,-0.554932,-0.936157,-89.050285,-2.807617,18.798828
28228707,0.046997,-0.540771,-0.921021,-105.224602,-5.187988,17.272949
28246437,0.037354,-0.587891,-0.872070,-107.482903,-2.441406,16.601562
28264471,0.038574,-0.687744,-0.832031,-121.887199,9.460449,17.272949
28282339,0.061035,-0.755981,-0.819824,-165.161118,20.690916,17.333984
28300166,0.071045,-0.767578,-0.825562,-222.778305,21.667479,20.690916
28317859,0.050049,-0.767090,-0.819214,-238.952621,18.188477,25.207518
28335486,0.022705,-0.766479,-0.757568,-249.999985,14.831542,34.240723
28352275,0.030029,-0.780518,-0.722290,-258.605957,19.958496,29.296873
28369498,0.075195,-0.846191,-0.652222,-262.756348,20.446775,23.010252
28386601,0.086304,-0.898926,-0.559937,-271.667480,12.390136,19.653320
28403395,0.057739,-0.934082,-0.510742,-275.146484,7.690429,31.372068
28420331,0.061768,-0.917358,-0.420410,-278.808594,9.704590,34.545898
28437254,0.103394,-0.891357,-0.308105,-278.076172,13.000487,34.606934
28454238,0.122925,-0.877441,-0.248535,-254.760727,8.605957,31.433104
28471179,0.124878,-0.882690,-0.145508,-237.243637,4.882812,31.311033
28488361,0.114380,-0.910522,-0.056274,-212.402328,1.403808,29.602049
28505308,0.114014,-0.938721,-0.014771,-203.918442,5.798339,25.756834
28522243,0.138062,-0.927368,0.056519,-208.007797,9.582520,24.353025
28539455,0.150879,-0.903442,0.090820,-215.515121,9.094238,26.367186
28556346,0.148560,-0.880737,0.154419,-198.608383,2.746582,29.602049
28573237,0.151245,-0.901978,0.211914,-187.072739,1.586914,28.503416
28590437,0.156982,-0.932495,0.239990,-183.044418,-0.549316,24.780272
28607643,0.149780,-0.961304,0.292236,-207.458481,-0.549316,25.817869
28624905,0.147095,-0.919678,0.344360,-220.520004,0.976562,27.954100
28641823,0.153442,-0.884766,0.376587,-233.642563,5.004883,30.639647
28658737,0.179321,-0.814697,0.436401,-232.360825,5.493164,31.127928
28675625,0.197021,-0.774536,0.494507,-218.139633,-0.427246,31.799314
28692473,0.199707,-0.751709,0.528564,-199.340805,-10.681151,29.296873
28709420,0.188110,-0.701782,0.605713,-192.382797,-13.061522,26.550291
28726396,0.182617,-0.649780,0.666016,-186.645493,-7.934570,21.911619
28743617,0.189453,-0.622070,0.689209,-184.204086,0.549316,24.780272
28760689,0.221680,-0.552124,0.733765,-180.725082,2.075195,26.367186
28777734,0.239868,-0.466919,0.780396,-165.344223,-2.685547,25.451658
28796135,0.235107,-0.447998,0.803345,-139.038086,-10.742187,18.005371
28814529,0.216919,-0.478882,0.839966,-125.793449,-10.864257,14.282226
28832995,0.205200,-0.428223,0.869873,-126.708977,-7.019042,16.784668
28851508,0.218628,-0.339722,0.885864,-124.450676,2.136230,21.972654
28869877,0.240112,-0.317261,0.895996,-103.149406,3.845215,18.005371
28887334,0.239624,-0.342773,0.903198,-80.688469,-1.831055,11.352538
28904166,0.230103,-0.380493,0.913818,-80.322258,-2.990722,10.559081
28921416,0.233643,-0.324463,0.920166,-93.811028,-1.342773,12.573241
28938809,0.235962,-0.275635,0.925293,-96.923820,0.000000,13.793944
28955805,0.245850,-0.193726,0.937012,-88.378899,-0.427246,12.695312
28972892,0.234985,-0.233276,0.947998,-61.340328,-2.868652,7.873535
28990090,0.229736,-0.251465,0.954712,-56.762691,-2.075195,5.126953
29007195,0.233032,-0.213989,0.967529,-61.828609,-1.831055,5.004883
29024160,0.235840,-0.153198,0.980591,-62.011715,-2.197266,4.882812
29041494,0.233398,-0.137329,0.983887,-42.358395,-0.793457,2.258301
29058327,0.232178,-0.161011,0.985107,-31.249998,-0.183105,1.098633
29075290,0.239258,-0.180054,0.990234,-20.385740,0.244141,-0.610352
29092481,0.241943,-0.176025,0.991211,-17.822266,-0.183105,-1.220703
29109813,0.238892,-0.155884,0.989258,-15.869140,-0.427246,-1.831055
29127161,0.234009,-0.158936,0.986938,-5.432128,-0.122070,-3.234863
29144475,0.230713,-0.189453,0.983521,2.624511,1.708984,-2.685547
29161474,0.235962,-0.214111,0.977295,-0.427246,2.807617,-1.770019
29178530,0.246338,-0.178467,0.969116,-8.056641,2.746582,-0.854492
29195701,0.246216,-0.158325,0.968018,-3.601074,0.244141,-1.403808
29212909,0.241821,-0.148193,0.971802,4.028320,-1.220703,-2.014160
29230004,0.234131,-0.189575,0.975098,19.653320,-2.502441,-3.479004
29247042,0.232544,-0.215210,0.976318,19.104004,-1.098633,-2.502441
29264045,0.232788,-0.220581,0.976807,12.878417,0.488281,-1.403808
29281015,0.238647,-0.182251,0.968262,1.037598,3.662109,0.061035
29297918,0.244141,-0.156738,0.964600,1.647949,4.394531,-1.464844
29315032,0.256470,-0.119141,0.959717,8.483887,3.173828,-3.173828
29332157,0.253174,-0.104004,0.965210,31.555174,-0.854492,-7.568359
29348948,0.248047,-0.109741,0.967285,60.241695,-2.868652,-13.000487
29366083,0.239014,-0.154907,0.964233,74.645996,-2.868652,-15.441894
29383178,0.236206,-0.183838,0.960937,97.290031,-1.342773,-19.775391
29400184,0.229248,-0.219971,0.948853,110.717766,1.770019,-24.658201
29417424,0.239990,-0.184937,0.915283,120.178215,1.892090,-28.198240
29434347,0.251709,-0.154175,0.891724,166.259750,-6.713867,-39.001465
29451410,0.248047,-0.207397,0.838501,245.056137,-23.437498,-48.522945
29468359,0.188477,-0.443970,0.795166,276.428223,-28.137205,-50.415035
29485625,0.160278,-0.560547,0.780151,285.827637,-24.902342,-48.217770
29502840,0.144531,-0.694336,0.751221,245.239243,-13.549804,-40.405270
29519838,0.151367,-0.726196,0.719238,221.008286,-8.056641,-36.621094
29536905,0.154541,-0.714111,0.698730,183.410629,0.061035,-34.179687
29554144,0.151245,-0.713623,0.640869,170.532211,3.295898,-35.339355
29571615,0.146729,-0.713623,0.580688,171.325668,3.295898,-35.156250
29588970,0.143921,-0.714600,0.550293,188.110336,-0.366211,-36.437988
29606288,0.134033,-0.737793,0.479980,220.581039,-6.591796,-39.550781
29623834,0.099854,-0.828491,0.393188,238.281235,-9.033203,-40.832516
29640750,0.071045,-0.935303,0.300659,256.164551,-10.742187,-41.259762
29657482,0.071899,-0.942139,0.257568,249.938950,-12.145995,-38.635254
29674356,0.090332,-0.904053,0.167236,251.403793,-14.770507,-37.048340
29691088,0.090942,-0.901367,0.119263,275.085449,-22.949217,-33.935547
29707814,0.077881,-0.979614,0.026978,291.564941,-26.855467,-31.249998
29724661,0.067993,-1.056274,-0.051270,305.725098,-34.667969,-21.911619
29741560,0.057495,-1.058350,-0.090332,283.813477,-40.588375,-11.596679
29758372,0.061646,-0.963745,-0.189453,265.686035,-43.640133,-5.676269
29775326,0.088257,-0.936646,-0.299805,247.741684,-42.968746,10.009766
29792398,0.102173,-0.914917,-0.345215,266.296387,-45.349117,15.930175
29809200,0.084595,-0.904663,-0.430786,281.616211,-52.612301,15.319823
29826596,0.051636,-0.890991,-0.478271,302.368164,-61.340328,5.065917
29846263,0.048828,-0.895386,-0.490112,283.630371,-49.072262,-2.746582
29863292,0.084106,-0.822998,-0.533813,247.741684,-30.639647,2.136230
29880553,0.119873,-0.711426,-0.613159,239.562973,-24.658201,6.591796
29897629,0.122681,-0.702637,-0.652222,259.399414,-18.859863,9.765625
29914765,0.108887,-0.762695,-0.692261,257.629395,-14.465331,8.483887
29931730,0.098389,-0.751953,-0.726440,230.407700,-10.681151,7.385253
29948864,0.100220,-0.729736,-0.750854,162.353500,1.953125,10.314940
29965441,0.089478,-0.645752,-0.808960,133.056641,8.544922,15.319823
29982700,0.092285,-0.525879,-0.872681,93.017570,19.714355,19.897461
29999782,0.097778,-0.485352,-0.904175,81.726067,23.742674,17.517090
30016746,0.116699,-0.488281,-0.944336,82.519524,22.460936,16.540527
30033531,0.127441,-0.540649,-0.955811,76.599121,14.709472,11.840819
30050653,0.125732,-0.570068,-0.953125,47.180172,6.530761,7.690429
30067476,0.119873,-0.564697,-0.944946,25.634764,4.821777,7.141113
30084243,0.127686,-0.520630,-0.950439,-10.986327,5.371093,6.896972
30101382,0.136108,-0.514404,-0.951294,-24.780272,3.479004,6.958007
30118537,0.141479,-0.536011,-0.927612,-26.489256,0.671387,6.286621
30135575,0.124512,-0.591553,-0.894897,-37.597656,-1.098633,3.479004
30152654,0.123169,-0.606934,-0.891968,-69.885254,5.554199,1.586914
30169926,0.139404,-0.631592,-0.907959,-87.524406,6.958007,3.479004
30187190,0.146118,-0.656006,-0.906128,-115.600578,-0.305176,11.901855
30204413,0.138428,-0.668579,-0.888916,-135.925293,-9.277344,19.042969
30221672,0.105225,-0.713379,-0.844238,-144.348145,-9.582520,18.005371
30238716,0.109497,-0.745972,-0.813843,-184.326157,-1.037598,6.958007
30255873,0.118896,-0.747559,-0.802612,-230.163559,5.249023,-4.211426
30273010,0.124390,-0.754639,-0.759399,-242.736801,5.554199,-4.760742
30290080,0.115723,-0.817139,-0.690063,-258.544922,7.202148,7.812500
30307075,0.123535,-0.828003,-0.652588,-273.193359,9.338379,15.319823
30324235,0.141968,-0.828857,-0.568604,-275.024414,7.873535,12.695312
30341562,0.130005,-0.851440,-0.461670,-263.000488,0.732422,1.831055
30358671,0.129150,-0.856323,-0.411987,-244.384750,-0.244141,-6.103515
30375946,0.134155,-0.873901,-0.317993,-236.694321,2.319336,-1.342773
30393201,0.120483,-0.956787,-0.227051,-215.698227,7.751464,21.301268
30410316,0.126465,-0.991577,-0.185425,-205.810532,12.207030,22.460936
30427295,0.149536,-1.011353,-0.119141,-217.407211,14.099120,18.005371
30444076,0.148071,-0.971558,-0.065063,-257.629395,15.808105,14.953612
30461503,0.159790,-0.921387,-0.035278,-268.249512,15.624999,22.094725
30478690,0.163940,-0.924194,0.048340,-256.835937,13.793944,29.602049
30495361,0.175659,-0.948120,0.136353,-236.755356,4.455566,39.062500
30512336,0.174561,-0.938354,0.170776,-242.736801,-5.432128,34.729004
30529416,0.165161,-0.900635,0.241577,-251.708969,-6.408691,29.113768
30546356,0.162476,-0.880859,0.283447,-262.084961,-2.319336,26.123045
30563318,0.167114,-0.840088,0.363037,-258.056641,3.967285,39.489746
30580326,0.200317,-0.790527,0.427734,-255.737289,4.943848,43.457027
30597376,0.213623,-0.754883,0.464233,-252.990707,2.136230,37.414551
30614233,0.228882,-0.690430,0.535889,-248.779282,-2.380371,27.465818
30631348,0.237671,-0.591675,0.611206,-242.736801,-5.310058,24.719236
30648307,0.235596,-0.553955,0.648804,-215.332016,-9.887695,23.742674
30665240,0.222656,-0.533081,0.715210,-198.303207,-10.009766,25.268553
30682224,0.235229,-0.528442,0.764160,-172.607407,-8.300781,26.855467
30699318,0.249878,-0.506714,0.778687,-165.466293,-9.521484,23.620604
30716521,0.265381,-0.400269,0.803711,-164.855942,-12.390136,20.263670
30733866,0.239624,-0.337402,0.841187,-154.052734,-16.906738,14.282226
30750711,0.222778,-0.334229,0.848755,-140.319824,-11.108397,16.052246
30767680,0.218262,-0.341919,0.854370,-141.235352,-5.737304,17.883301
30784681,0.234009,-0.303223,0.885986,-153.869629,0.305176,17.944336
30801730,0.242554,-0.269531,0.899292,-155.395508,-1.953125,13.916015
30818591,0.259766,-0.141846,0.924438,-147.583008,-5.249023,10.559081
30835648,0.252319,-0.110596,0.952759,-107.849113,-16.479492,4.455566
30852806,0.240845,-0.137329,0.972290,-67.382812,-25.085447,1.586914
30869708,0.208130,-0.183228,1.000732,-57.373043,-25.085447,1.647949
30886820,0.187866,-0.201538,1.018799,-56.701656,-16.784668,1.892090
30903837,0.192261,-0.185425,1.023193,-66.528320,-3.906250,2.441406
30920990,0.228394,-0.114258,1.022339,-67.321777,-0.183105,2.685547
30938021,0.256958,-0.046875,1.017700,-52.917477,-2.380371,1.281738
30954691,0.255249,-0.041992,1.020386,-25.085447,-10.437011,-4.028320
30971945,0.221802,-0.111938,1.028076,-14.831542,-12.329101,-5.981445
30989148,0.202148,-0.180176,1.030396,-18.981934,-6.835937,-6.042480
31006306,0.207520,-0.155640,1.026367,-43.151852,4.394531,-1.342773
31022976,0.244019,-0.038696,1.012817,-47.119137,6.408691,0.000000
31039702,0.255371,0.002197,1.007446,-24.353025,0.305176,-4.455566
31056905,0.241211,-0.014038,1.005859,8.117676,-6.164550,-9.582520
31073937,0.211304,-0.094238,1.008301,15.808105,-6.286621,-9.338379
31090737,0.200073,-0.134033,1.010986,10.681151,-0.915527,-4.638672
31107693,0.200806,-0.160645,1.008423,-0.854492,4.028320,-1.831055
31124567,0.231689,-0.072754,0.986572,-23.437498,10.009766,1.708984
31141596,0.244385,-0.026611,0.976196,-15.197753,2.136230,0.915527
31158539,0.234375,-0.020264,0.974365,-0.427246,-3.906250,-0.976562
31175456,0.193970,-0.104126,0.982056,18.920898,-7.080078,-4.333496
31192270,0.185547,-0.124878,0.985840,7.934570,1.586914,-0.793457
31209304,0.205688,-0.092163,0.976807,-1.342773,6.469726,1.708984
31226067,0.234863,-0.053223,0.965576,-7.141113,7.019042,2.014160
31243214,0.233521,-0.055664,0.963501,1.770019,-1.098633,0.183105
31260180,0.209106,-0.086304,0.968018,4.394531,-3.540039,0.305176
31277024,0.200806,-0.099243,0.970337,-0.793457,-2.014160,2.563476
31293911,0.204712,-0.087524,0.973755,-12.023925,3.845215,3.295898
31310837,0.223999,-0.038208,0.972534,-14.526366,5.737304,2.990722
31327673,0.233276,-0.014282,0.970459,-7.934570,3.845215,0.610352
31344553,0.231323,-0.003418,0.964111,-0.305176,1.159668,-1.037598
31361649,0.215820,-0.052734,0.959961,14.770507,-2.929687,-3.173828
31378718,0.209717,-0.094971,0.962158,13.366698,-2.258301,-2.685547
31395661,0.201660,-0.132812,0.971069,3.051758,0.183105,-1.281738
31412789,0.216919,-0.071411,0.970947,-19.714355,5.554199,2.258301
31429543,0.227905,-0.030762,0.968506,-19.470215,5.554199,2.136230
31446276,0.244873,0.005005,0.969482,-9.460449,2.624511,0.488281
31463427,0.229980,-0.045654,0.981201,16.357422,-5.615234,-2.807617
31480408,0.214355,-0.103271,0.988647,21.911619,-6.408691,-2.441406
31497519,0.204590,-0.146240,1.000000,10.742187,-2.868652,-0.671387
31514512,0.223999,-0.065186,0.993774,-14.709472,3.601074,2.807617
31531298,0.230225,-0.025391,0.990112,-12.451171,3.051758,1.953125
31547905,0.227905,-0.014404,0.989990,-2.197266,1.647949,0.427246
31564808,0.225830,-0.036621,0.987671,17.456055,-1.098633,-1.953125
31581770,0.216675,-0.098389,0.984985,20.874022,-1.770019,-2.319336
31598893,0.207642,-0.129517,0.984131,10.070800,0.854492,-1.037598
31615772,0.207642,-0.117065,0.984497,-10.131835,7.263183,2.319336
31632377,0.225098,-0.051636,0.981445,-15.441894,9.826660,3.234863
31649052,0.246216,-0.014160,0.972412,-8.789063,9.033203,2.136230
31665637,0.245483,-0.021729,0.969971,8.361816,2.563476,0.000000
31682228,0.227295,-0.065796,0.969727,13.488769,0.549316,-0.488281
31698842,0.218384,-0.088379,0.971680,10.742187,2.136230,0.061035
31715403,0.218994,-0.103027,0.976685,3.906250,4.821777,0.671387
31732019,0.236938,-0.063721,0.974121,-8.972168,8.178711,1.464844
31748829,0.245972,-0.042358,0.971069,-6.958007,5.798339,0.732422
31765404,0.248169,-0.029175,0.968750,-1.403808,3.601074,0.000000
31782123,0.240234,-0.062744,0.968994,10.192870,0.671387,-1.342773
31798830,0.236938,-0.077637,0.973511,9.765625,0.183105,-1.464844
31815409,0.234009,-0.094482,0.983276,4.943848,0.671387,-1.342773
31832251,0.235107,-0.086304,0.983643,-6.774902,2.197266,-1.159668
31849306,0.243408,-0.047974,0.979980,-8.117676,1.831055,-0.915527
31866111,0.240234,-0.037842,0.978516,1.770019,-1.159668,-1.525879
31882840,0.233521,-0.057983,0.981689,14.160155,-2.319336,-3.051758
31899573,0.224487,-0.113037,0.984375,13.549804,-0.793457,-3.173828
31916246,0.236328,-0.095337,0.977417,0.549316,3.051758,-0.549316
31932909,0.240234,-0.081299,0.975708,-7.629394,4.516602,0.183105
31949544,0.244019,-0.057617,0.972900,-9.094238,5.493164,0.122070
31966208,0.249146,-0.044922,0.968994,-4.455566,5.432128,-0.061035
31983069,0.258667,-0.039917,0.967163,1.342773,3.234863,-0.793457
31999684,0.242920,-0.080322,0.974609,12.084960,-1.525879,-2.075195
32016437,0.232422,-0.109741,0.979004,8.117676,-0.671387,-1.281738
32033186,0.234131,-0.107788,0.980713,0.244141,1.342773,-0.122070
32049769,0.245361,-0.069702,0.978516,-9.582520,4.699707,1.037598
32066386,0.249023,-0.062012,0.981201,-5.554199,5.187988,0.549316
32082942,0.253906,-0.055420,0.978271,-0.793457,4.028320,0.488281
32099637,0.254150,-0.055054,0.974243,9.033203,0.915527,0.244141
32116281,0.244507,-0.082031,0.968628,11.779784,0.183105,0.000000
32132796,0.238525,-0.107300,0.968140,6.896972,2.014160,0.671387
32149471,0.243652,-0.100952,0.969360,-4.394531,4.394531,1.770019
32166023,0.255249,-0.067627,0.969116,-7.263183,4.455566,1.586914
32182718,0.257813,-0.052856,0.968750,-4.394531,3.051758,0.671387
32199433,0.261230,-0.045288,0.966919,0.183105,1.892090,0.061035
32216057,0.262451,-0.064575,0.966187,8.850098,-0.122070,-1.159668
32232768,0.259399,-0.084106,0.968506,7.568359,-0.122070,-0.366211
32249484,0.254639,-0.092285,0.974365,1.892090,0.793457,0.488281
32266061,0.254517,-0.057251,0.973633,-7.141113,2.136230,1.525879
32282575,0.254883,-0.045532,0.973511,-3.234863,1.953125,0.305176
32299166,0.253296,-0.055176,0.973389,1.464844,1.342773,-0.854492
32315827,0.251831,-0.072754,0.973633,7.507324,0.000000,-2.624511
32332536,0.246704,-0.105713,0.975464,6.286621,0.061035,-2.258301
32349206,0.250854,-0.093018,0.976196,-2.014160,1.586914,-0.305176
32366043,0.253662,-0.078003,0.975464,-4.272461,2.075195,1.037598
32382951,0.255859,-0.061523,0.976318,-2.014160,1.953125,0.976562
32399889,0.256714,-0.063354,0.974854,3.723144,1.831055,-0.061035
32416840,0.258911,-0.066406,0.972656,6.591796,1.403808,-1.159668
32433909,0.258667,-0.082153,0.967041,6.530761,1.159668,-1.281738
32450791,0.258789,-0.088013,0.965210,0.671387,1.464844,-1.037598
32467427,0.262817,-0.068726,0.964111,-4.699707,1.403808,-0.793457
32484221,0.260376,-0.053955,0.965210,-3.845215,1.220703,-0.915527
32500991,0.257813,-0.058472,0.966187,1.403808,1.281738,-1.159668
32517864,0.257080,-0.079224,0.967285,3.417969,1.159668,-1.220703
32534732,0.259399,-0.090454,0.967163,3.234863,0.793457,-0.976562
32551700,0.260620,-0.091064,0.965698,0.366211,0.000000,-0.976562
32568549,0.260986,-0.079712,0.969360,-1.342773,-0.244141,-0.976562
32585738,0.258911,-0.069336,0.972412,-1.403808,-0.366211,-0.732422
32602502,0.258179,-0.067871,0.973511,1.464844,0.244141,-0.366211
32619580,0.259155,-0.074463,0.972290,2.624511,0.610352,-0.305176
32636433,0.260620,-0.075806,0.968018,2.014160,0.854492,-0.061035
32653288,0.261841,-0.072388,0.965698,0.976562,-0.183105,-0.305176
32670184,0.262573,-0.068359,0.965698,1.220703,-0.732422,-0.610352
32687208,0.262207,-0.069946,0.969482,1.647949,-1.159668,-1.342773
32704199,0.258911,-0.076294,0.977295,-0.122070,-0.061035,-1.159668
32721320,0.256714,-0.071411,0.976318,-1.342773,0.793457,-0.732422
32738210,0.256958,-0.065063,0.975342,-0.671387,1.403808,-0.732422
32755018,0.255615,-0.069580,0.975098,1.403808,1.403808,-1.220703
32771839,0.256592,-0.088989,0.972046,3.112793,2.136230,-1.586914
32788706,0.261475,-0.089844,0.969116,0.671387,1.892090,-0.793457
32805610,0.264893,-0.075317,0.966553,0.305176,1.098633,-0.366211
32822436,0.259644,-0.082153,0.973389,1.342773,0.366211,-0.488281
32839490,0.258545,-0.085937,0.977905,-0.671387,1.220703,-0.244141
32856547,0.260254,-0.075562,0.981323,-2.014160,1.770019,0.183105
32873541,0.262939,-0.062866,0.973389,-2.502441,3.173828,0.305176
32890397,0.267090,-0.059082,0.966309,0.610352,2.929687,-0.915527
32907267,0.271973,-0.066040,0.958862,3.112793,1.892090,-1.953125
32924361,0.265137,-0.082520,0.963013,5.676269,-0.183105,-2.868652
32941391,0.264404,-0.085937,0.964722,2.136230,0.000000,-2.014160
32958268,0.271729,-0.081909,0.963501,-0.793457,0.793457,-1.647949
32975321,0.276245,-0.072144,0.963135,-1.831055,0.671387,-0.427246
32992042,0.275757,-0.065308,0.967529,0.671387,0.000000,-0.549316
33008644,0.270020,-0.084839,0.972046,5.004883,-0.610352,-1.342773
33025639,0.269775,-0.092407,0.972778,2.441406,-0.366211,-0.793457
33042599,0.267944,-0.083496,0.973511,-0.366211,-0.122070,-0.366211
33059474,0.262695,-0.072266,0.976807,-2.868652,0.488281,-0.183105
33076185,0.261719,-0.072754,0.977783,-0.915527,1.708984,-0.610352
33093117,0.268188,-0.075562,0.971802,0.427246,2.014160,-0.549316
33109633,0.269897,-0.079346,0.967773,2.807617,1.098633,-0.305176
33126590,0.267578,-0.083374,0.968506,2.685547,0.122070,-0.671387
33143205,0.263672,-0.084106,0.969482,0.732422,0.427246,-0.610352
33160117,0.265869,-0.075439,0.967896,-2.807617,1.098633,0.122070
33177032,0.267456,-0.061035,0.965332,-2.258301,0.915527,-0.061035
33193938,0.262695,-0.068848,0.966553,1.098633,0.549316,-0.854492
33210984,0.261719,-0.071533,0.964844,2.441406,0.854492,-1.098633
33227861,0.266113,-0.078491,0.960449,2.441406,0.671387,-1.159668
33244735,0.267822,-0.082520,0.959473,0.549316,-0.183105,-1.281738
33261793,0.267334,-0.075439,0.960327,-2.319336,0.305176,-1.037598
33278806,0.270386,-0.061157,0.960693,-1.953125,0.549316,-1.037598
33296212,0.272949,-0.065552,0.960083,2.197266,0.000000,-1.464844
33313274,0.272217,-0.076660,0.961060,5.676269,-0.732422,-2.197266
33330385,0.270142,-0.096924,0.964844,4.821777,-0.732422,-2.136230
33347281,0.272339,-0.089600,0.964966,-0.793457,-0.671387,-1.037598
33364255,0.271973,-0.080322,0.966187,-3.417969,-1.220703,-0.183105
33381354,0.269653,-0.066650,0.971069,-1.892090,-1.525879,-0.183105
33398391,0.269043,-0.076538,0.977295,3.784179,-1.892090,-0.976562
33415272,0.267944,-0.084351,0.978516,6.347656,-1.525879,-0.976562
33432182,0.265991,-0.094971,0.977661,5.493164,-1.037598,-0.732422
33449097,0.266235,-0.096069,0.975586,0.183105,0.366211,0.122070
33465896,0.271851,-0.078735,0.968018,-3.906250,0.488281,0.671387
33482855,0.275146,-0.055542,0.967773,-2.502441,-0.549316,0.427246
33500113,0.269531,-0.056763,0.972778,4.455566,-1.953125,-0.549316
33517004,0.256592,-0.087402,0.979370,5.493164,-0.854492,-0.915527
33533971,0.268188,-0.081299,0.971558,-1.464844,2.807617,-0.671387
33551012,0.274536,-0.067505,0.966797,-3.967285,1.770019,-0.305176
33567910,0.269653,-0.062256,0.969238,-1.220703,0.183105,-0.671387
33585288,0.257202,-0.083374,0.973877,4.821777,-1.098633,-1.037598
33602277,0.255981,-0.092651,0.973511,3.540039,0.549316,-0.549316
33618996,0.263062,-0.093018,0.969116,0.976562,1.281738,-0.244141
33636097,0.265747,-0.074585,0.968262,-2.685547,1.342773,-0.183105
33653415,0.266235,-0.067261,0.968872,-1.464844,0.915527,-0.305176
33670106,0.267334,-0.061646,0.967896,0.305176,0.671387,-0.305176
33687117,0.264404,-0.072510,0.963135,3.906250,0.183105,-0.671387
33704092,0.262939,-0.079834,0.961060,3.295898,0.366211,-1.464844
33720850,0.265137,-0.086304,0.959229,1.342773,0.671387,-1.647949
33737795,0.271118,-0.084961,0.958984,-1.770019,0.732422,-1.586914
33754674,0.273071,-0.084229,0.960449,-0.183105,-0.488281,-0.915527
33771854,0.272827,-0.086304,0.964844,1.342773,-1.098633,-0.366211
33788801,0.272827,-0.083984,0.966187,3.295898,-1.831055,0.305176
33805750,0.273438,-0.083862,0.965820,2.685547,-1.770019,0.122070
33822645,0.269409,-0.085937,0.967285,0.976562,-1.464844,0.000000
33839724,0.267334,-0.083374,0.968994,-2.258301,-0.915527,-0.183105
33856703,0.265869,-0.075684,0.975342,-2.990722,-0.610352,-0.244141
33873756,0.268555,-0.067627,0.974976,-2.014160,-0.183105,-0.305176
33890819,0.269775,-0.066162,0.972656,1.647949,-0.549316,-0.610352
33907906,0.265991,-0.078491,0.974731,3.662109,-0.793457,-0.732422
33924834,0.261475,-0.089478,0.977661,2.502441,0.061035,-0.976562
33944720,0.266235,-0.073730,0.971436,-3.051758,1.647949,-0.488281
33961439,0.269165,-0.066162,0.968506,-1.159668,0.976562,-0.854492
33978214,0.268311,-0.073486,0.968262,1.892090,0.000000,-1.159668
33995095,0.261230,-0.084595,0.973877,4.699707,-0.915527,-1.464844
34011897,0.260376,-0.083740,0.974243,2.624511,0.244141,-1.098633
34028530,0.264282,-0.079956,0.971436,0.915527,1.098633,-0.793457
34045580,0.267212,-0.078125,0.971191,-2.136230,1.586914,-0.793457
34062893,0.271973,-0.068237,0.970215,-2.197266,0.671387,-1.525879
34080264,0.273438,-0.065430,0.965698,-0.305176,0.183105,-1.770019
34097418,0.274292,-0.071289,0.964111,2.990722,-0.183105,-1.953125
34114839,0.275635,-0.083618,0.964600,1.892090,0.183105,-1.953125
34131931,0.271851,-0.088867,0.967407,0.549316,0.488281,-1.708984
34148888,0.271362,-0.087646,0.970703,-0.549316,0.671387,-1.220703
34165971,0.270630,-0.085571,0.975098,-0.427246,0.305176,-1.159668
34183281,0.269287,-0.079834,0.971924,-0.549316,0.366211,-1.098633
34200422,0.269531,-0.076294,0.968872,1.098633,0.549316,-0.610352
34217229,0.270142,-0.078125,0.963135,2.746582,0.366211,-0.549316
34234440,0.270874,-0.076782,0.960449,1.708984,0.549316,-0.427246
34251255,0.272705,-0.070312,0.958740,-1.037598,1.220703,-0.549316
34268408,0.278809,-0.061646,0.957397,-0.671387,1.037598,-0.732422
34285571,0.272949,-0.082520,0.964478,2.502441,-0.671387,-1.647949
34302596,0.267822,-0.093018,0.966431,1.159668,-0.549316,-1.708984
34319338,0.264648,-0.091675,0.963501,-0.610352,0.061035,-1.220703
34336069,0.266724,-0.083374,0.963623,-0.488281,0.488281,-0.549316
34352804,0.264160,-0.088867,0.965820,1.647949,0.366211,-0.854492
34369605,0.264282,-0.091675,0.965576,1.098633,0.488281,-0.732422
34386671,0.270752,-0.077637,0.963623,0.244141,-0.183105,-0.305176
34403406,0.270020,-0.078247,0.963013,2.319336,-1.708984,-0.366211
34420594,0.266846,-0.085449,0.963501,2.380371,-2.014160,-0.122070
34437467,0.267822,-0.075073,0.974365,-0.488281,-1.770019,0.549316
34454470,0.267090,-0.063965,0.978516,-2.929687,-0.854492,0.549316
34471782,0.265381,-0.051758,0.981079,-2.746582,-0.122070,0.061035
34489217,0.266357,-0.057373,0.974121,-0.488281,0.915527,-1.586914
34506627,0.266846,-0.065796,0.968994,2.746582,0.549316,-3.112793
34523866,0.264893,-0.093872,0.960205,3.601074,0.122070,-3.234863
34540984,0.265869,-0.108032,0.957520,1.403808,0.000000,-2.014160
34557766,0.270874,-0.099731,0.959595,-2.197266,-0.671387,-0.244141
34574780,0.277222,-0.071045,0.968018,-1.953125,-1.342773,0.122070
34592230,0.275024,-0.066406,0.970337,1.708984,-1.953125,-0.244141
34608924,0.274902,-0.071777,0.971069,3.540039,-1.098633,-0.549316
34625990,0.275024,-0.082153,0.972534,2.563476,-0.610352,-0.671387
34643091,0.275391,-0.082642,0.970703,-0.549316,-0.061035,-0.732422
34660218,0.273315,-0.078125,0.965942,-0.976562,-0.183105,-0.732422
34677414,0.270752,-0.077148,0.957031,0.061035,-0.183105,-0.793457
34694452,0.271118,-0.081787,0.954956,3.417969,-0.366211,-0.915527
34711463,0.267578,-0.096558,0.962646,3.479004,-1.525879,-0.427246
34728546,0.264404,-0.095459,0.968750,1.831055,-1.770019,0.183105
34745877,0.264404,-0.085083,0.970215,0.000000,-1.037598,1.220703
34762957,0.268311,-0.074585,0.969727,2.746582,-0.549316,0.671387
34780212,0.268677,-0.084473,0.968994,3.662109,-0.732422,0.427246
34797049,0.268555,-0.083984,0.969482,1.831055,-0.976562,0.488281
34813992,0.269775,-0.064087,0.975464,0.854492,-1.098633,0.488281
34830760,0.267090,-0.056519,0.984375,1.831055,-1.342773,-0.244141
34847701,0.264038,-0.061401,0.987549,4.394531,-0.793457,-1.647949
34864832,0.260498,-0.074341,0.987671,4.882812,0.000000,-2.197266
34881623,0.262817,-0.076416,0.987793,4.516602,2.258301,-2.807617
34898898,0.266235,-0.070679,0.985229,4.943848,4.150391,-3.540039
34915619,0.275146,-0.049683,0.977295,7.080078,4.699707,-4.455566
34932659,0.275024,-0.030396,0.969360,17.272949,5.615234,-7.446289
34949640,0.276367,-0.017090,0.963989,38.574219,6.164550,-11.352538
34966592,0.284424,-0.007080,0.951538,54.687496,4.943848,-13.977050
34983923,0.275391,-0.063599,0.942017,91.430656,1.159668,-20.446775
35001196,0.271362,-0.110962,0.935547,115.539543,-0.122070,-24.230955
35018417,0.264282,-0.196655,0.929199,119.262688,0.061035,-24.353025
35035222,0.262939,-0.233398,0.922607,112.853996,1.159668,-24.658201
35052104,0.267456,-0.217896,0.918823,106.140129,1.464844,-28.076170
35069003,0.283325,-0.181396,0.897583,113.525383,-0.122070,-31.311033
35086471,0.277344,-0.203491,0.877563,146.789551,-5.126953,-39.367676
35103637,0.266968,-0.245361,0.866455,183.471664,-7.507324,-47.241207
35120885,0.240845,-0.355713,0.840698,195.068344,-7.019042,-50.537106
35138205,0.229980,-0.441040,0.816528,201.721176,-3.784179,-55.908199
35155597,0.232300,-0.452026,0.800293,202.331528,-3.479004,-61.523434
35172809,0.227417,-0.446777,0.749146,211.730942,-7.141113,-65.673828
35189910,0.203003,-0.467163,0.663940,259.216309,-21.240232,-78.613281
35206905,0.179932,-0.530640,0.612549,334.228485,-34.240723,-89.721672
35224004,0.108765,-0.732178,0.490723,367.980927,-36.987305,-91.369621
35240946,0.043823,-0.969238,0.393433,394.958466,-34.179687,-86.486809
35258246,0.036743,-1.025391,0.348999,360.656708,-21.850584,-72.509766
35275243,0.042236,-1.021118,0.249146,340.087860,-17.639160,-66.650391
35292190,0.035156,-0.989624,0.124023,318.664551,-17.578125,-59.204098
35309229,0.021606,-0.983643,0.059448,317.321777,-21.362303,-48.645016
35326527,-0.010254,-1.020508,-0.050293,320.190430,-22.216795,-44.555660
35343962,-0.014526,-1.057739,-0.128418,313.110352,-18.371582,-39.550781
35361539,-0.000244,-1.051636,-0.175415,275.634766,-12.512206,-31.005857
35378992,0.021118,-1.048218,-0.265503,253.051743,-15.014647,-23.986814
35396014,0.013794,-1.007446,-0.355225,217.102036,-28.808592,-12.207030
35413074,0.002319,-0.964233,-0.378784,202.148422,-31.799314,-13.427733
35430478,-0.013672,-0.880127,-0.421143,197.936996,-31.372068,-16.052246
35447940,-0.032104,-0.869629,-0.458008,190.307602,-26.916502,-18.676758
35465559,-0.029297,-0.873413,-0.473389,167.846664,-18.310547,-21.057127
35483057,0.000000,-0.894775,-0.510254,149.414062,-15.563964,-21.484373
35500555,0.005127,-0.874634,-0.540649,109.985344,-14.221190,-21.606443
35517997,-0.005737,-0.853027,-0.552124,86.242668,-12.573241,-23.559568
35535335,-0.016479,-0.812012,-0.574463,77.026367,-9.033203,-22.827147
35552648,-0.009033,-0.808105,-0.585815,78.674316,-7.446289,-22.094725
35570044,-0.012085,-0.845703,-0.597412,85.510246,-2.868652,-20.935057
35587440,-0.009399,-0.861328,-0.611206,72.692871,1.953125,-14.404296
35604804,-0.009033,-0.861328,-0.645630,60.974117,2.197266,-8.972168
35622020,-0.018555,-0.812744,-0.667358,43.212887,0.915527,-0.183105
35639298,-0.020508,-0.795776,-0.673462,39.306641,0.915527,2.075195
35656302,-0.031738,-0.837280,-0.674438,36.132812,2.380371,2.990722
35673802,-0.027466,-0.876465,-0.685913,9.094238,8.117676,5.676269
35691323,-0.023071,-0.884033,-0.696533,-34.729004,12.023925,11.718749
